time_index,servos_1,servos_2,tx_controls_1,gps_sat_count_0,position_x,axis_rate_yaw,altitude_gps,velocity_z,acceleration_y,velocity_y,tx_controls_2,axis_rate_roll,time_flight,mode_1,acceleration_z,wind_x,attitude_yaw,tx_controls_5,airspeed_0,global_position_latitude,servos_3,time_actual,tx_controls_4,velocity_x,position_z,rpm_0,magnetometer_2,wind_y,tx_controls_0,mode_0,servos_4,servos_5,tx_controls_6,servos_6,attitude_pitch,servos_0,mode_2,global_position_longitude,axis_rate_pitch,altitude_baro,rpm_1,acceleration_x,tx_controls_7,servos_7,magnetometer_1,attitude_roll,magnetometer_0,tx_controls_3,position_y,current_3,airspeed_1,current_0,current_1,current_2,battery_0,battery_1
0.0,0.0,0.0,1568.0,17.0,0.0,0.0,-0.87,0.06129436194896698,0.09320031106472015,0.053173720836639404,1491.0,0.0,19.594887999999997,5.0,-9.754029273986816,0.0,2.7354545366507126,1500.0,0.0,51.4595449,0.0,19.575903,1417.0,0.002537086606025696,0.4352857768535614,20995.801025390625,402.0,0.0,1000.0,5.0,0.0,0.0,1500.0,0.0,0.06161012259539984,0.0,1.0,-2.7909466999999997,0.0,-0.36643171310424805,-14.0,1.1286373138427734,1500.0,0.0,-3.0,-0.004537856055185257,214.0,1603.0,0.0,,,,,,,
0.09981800000000263,0.0,0.0,1568.0,16.0,0.0,0.0,-0.86,0.057846374809741974,0.0808553472161293,0.05380869656801224,1491.0,0.0,19.694706,5.0,-9.746647834777832,0.0,2.7356290695759125,1500.0,0.0,51.4595449,0.0,19.655321999999998,1418.0,0.003032637294381857,0.433388352394104,20995.801025390625,402.0,0.0,1000.0,5.0,0.0,0.0,1500.0,0.0,0.06161012259539984,0.0,1.0,-2.7909466999999997,0.0,-0.3457876741886139,-14.0,1.149673342704773,1500.0,0.0,-3.0,-0.004537856055185257,214.0,1602.0,0.0,,,,,,,
0.2000150000000005,0.0,0.0,1568.0,16.0,0.0,0.0,-0.86,0.05457407608628273,0.07030193507671356,0.0565219521522522,1491.0,0.0,19.794902999999998,5.0,-9.758695602416992,0.0,2.7356290695759125,1500.0,0.0,51.4595449,0.0,19.775313999999998,1418.0,0.0028403503820300102,0.43098899722099304,20995.801025390625,402.0,0.0,1000.0,5.0,0.0,0.0,1500.0,0.0,0.0614355896702004,0.0,1.0,-2.7909466999999997,0.0,-0.27353355288505554,-14.0,1.1569350957870483,1500.0,0.0,-3.0,-0.00471238898038469,214.0,1602.0,0.0,,,,,,,
0.2997930000000011,0.0,0.0,1568.0,16.0,0.0,0.0,-0.8300000000000001,0.0505770780146122,0.14499802887439728,0.057163458317518234,1491.0,0.0,19.894681,5.0,-9.736401557922363,0.0,2.7358036025011114,1500.0,0.0,51.4595451,0.0,19.85511,1417.0,0.0032584608998149633,0.4283490478992462,20993.702392578125,402.0,0.0,1000.0,5.0,0.0,0.0,1500.0,0.0,0.0614355896702004,0.0,1.0,-2.7909466999999997,0.0,-0.21676242351531982,-14.0,1.14107346534729,1500.0,0.0,-3.0,-0.0054105206811824215,214.0,1603.0,0.0,,,,,,,
0.3997370000000018,0.0,0.0,1568.0,16.0,0.0,0.0,-0.8300000000000001,0.046945713460445404,-0.03525436297059059,0.06141923740506172,1491.0,0.0,19.994625,5.0,-9.730742454528809,0.0,2.7358036025011114,1500.0,0.0,51.4595451,0.0,19.975282999999997,1418.0,0.0023936794605106115,0.42116016149520874,20995.801025390625,402.0,0.0,1000.0,5.0,0.0,0.0,1500.0,0.0,0.0614355896702004,0.0,1.0,-2.7909466999999997,0.0,-0.3612707257270813,-14.0,1.1707935333251953,1500.0,0.0,-3.0,-0.004537856055185257,214.0,1602.0,0.0,,,,,,,
0.49979800000000196,0.0,0.0,1568.0,16.0,0.0,0.0,-0.79,0.04168560355901718,0.13031907379627228,0.06181688234210014,1491.0,0.0,20.094686,5.0,-9.75955581665039,0.0,2.7361526683515107,1500.0,0.0,51.4595452,0.0,20.055013,1418.0,0.0028583789244294167,0.4160741865634918,20993.702392578125,402.0,0.0,1000.0,5.0,0.0,0.0,1500.0,0.0,0.06126105674500097,0.0,1.0,-2.7909466999999997,0.0,-0.44900789856910706,-14.0,1.1652092933654785,1500.0,0.0,-3.0,-0.005759586531581287,214.0,1602.0,0.0,,,,,,,
0.5997560000000028,0.0,0.0,1568.0,16.0,0.0,0.0,-0.79,0.03782704472541809,0.02091534249484539,0.06512206047773361,1491.0,0.0,20.194644,5.0,-9.795586585998535,0.0,2.7361526683515107,1500.0,0.0,51.4595452,0.0,20.174896999999998,1418.0,0.0020413014572113752,0.412062406539917,20993.702392578125,402.0,0.0,1000.0,5.0,0.0,0.0,1500.0,0.0,0.061086523819801536,0.0,1.0,-2.7909466999999997,0.0,-0.335465669631958,-14.0,1.0778768062591553,1500.0,0.0,-3.0,-0.0054105206811824215,214.0,1602.0,0.0,,,,,,,
0.7000670000000007,0.0,0.0,1568.0,17.0,0.0,0.0,-0.74,0.03669466823339462,0.03979138284921646,0.062345705926418304,1490.0,0.0,20.294954999999998,5.0,-9.768796920776367,0.0,2.7363272012767097,1500.0,0.0,51.459545399999996,0.0,20.255012,1417.0,-0.0007295225514099002,0.41059133410453796,20991.0791015625,402.0,0.0,1001.0,5.0,0.0,0.0,1501.0,0.0,0.061086523819801536,0.0,1.0,-2.7909468,0.0,-0.43352484703063965,-14.0,1.1460827589035034,1500.0,0.0,-3.0,-0.006108652381980154,214.0,1603.0,0.0,,,,,,,
0.799787000000002,0.0,0.0,1569.0,17.0,0.0,0.0,-0.74,0.034765928983688354,0.14099755883216858,0.0707818940281868,1490.0,0.0,20.394675,5.0,-9.665382385253906,0.0,2.736501734201909,1500.0,0.0,51.459545399999996,0.0,20.374882,1417.0,0.00020622025476768613,0.4096692204475403,20991.0791015625,402.0,0.0,1000.0,5.0,0.0,0.0,1500.0,0.0,0.061086523819801536,0.0,1.0,-2.7909468,0.0,-0.27353355288505554,-14.0,1.2296282052993774,1500.0,0.0,-3.0,-0.0066322511575784525,214.0,1603.0,0.0,,,,,,,
0.899790000000003,0.0,0.0,1568.0,17.0,0.0,0.0,-0.7000000000000001,0.03148850053548813,0.07432744652032852,0.06839534640312195,1491.0,0.0,20.494678,5.0,-9.684545516967773,0.0,2.736501734201909,1500.0,0.0,51.4595456,0.0,20.455284,1418.0,-0.0005360988434404135,0.40877535939216614,20989.505126953125,402.0,0.0,1000.0,5.0,0.0,0.0,1500.0,0.0,0.06073745796940267,0.0,1.0,-2.7909469,0.0,-0.26321151852607727,-14.0,1.2160212993621826,1500.0,0.0,-3.0,-0.006981317007977318,214.0,1602.0,0.0,,,,,,,
0.9998090000000026,0.0,0.0,1568.0,17.0,0.0,0.0,-0.7000000000000001,0.02957743965089321,0.7466146945953369,0.08152125775814056,1491.0,0.0,20.594697,5.0,-9.635234832763672,0.0,2.736676267127109,1500.0,0.0,51.4595456,0.0,20.575322999999997,1418.0,0.0029802254866808653,0.40437713265419006,20991.0791015625,402.0,0.0,1000.0,5.0,0.0,0.0,1500.0,0.0,0.06073745796940267,0.0,1.0,-2.7909469,0.0,-0.41804182529449463,-14.0,1.0114619731903076,1500.0,0.0,-3.0,-0.00767944870877505,214.0,1602.0,0.0,,,,,,,
1.0998600000000032,0.0,0.0,1569.0,17.0,0.0,0.0,-0.67,0.02722601592540741,0.029141580685973167,0.059316519647836685,1490.0,0.0,20.694748,5.0,-10.204402923583984,0.0,2.7368508000523084,1500.0,0.0,51.459545899999995,0.0,20.655036,1417.0,-0.005261681042611599,0.401326984167099,20991.0791015625,402.0,0.0,1000.0,5.0,0.0,0.0,1500.0,0.0,0.06091199089460211,0.0,1.0,-2.790947,0.0,-0.4438468813896179,-14.0,1.1551213264465332,1500.0,0.0,-3.0,-0.005934119456780721,214.0,1603.0,0.0,,,,,,,
1.199746000000001,0.0,0.0,1569.0,17.0,0.0,0.0,-0.67,0.022021645680069923,0.9193897843360901,0.09339091181755066,1490.0,0.0,20.794634,5.0,-9.649200439453125,0.0,2.7371998659027073,1500.0,0.0,51.459545899999995,0.0,20.774925,1417.0,0.005372850690037012,0.4005456566810608,20999.4736328125,402.0,0.0,1000.0,5.0,0.0,0.0,1500.0,0.0,0.06056292504420324,0.0,1.0,-2.790947,0.0,-0.43352484703063965,-14.0,0.6781161427497864,1500.0,0.0,-3.0,-0.00890117918517108,214.0,1603.0,0.0,,,,,,,
1.2997760000000014,0.0,0.0,1568.0,17.0,0.0,0.0,-0.63,0.030298732221126556,-0.18178027868270874,0.06489215791225433,1491.0,-0.00017453292519943296,20.894664,5.0,-9.884450912475586,0.0,2.7371998659027073,1500.0,0.0,51.4595461,0.0,20.854996,1418.0,-0.01381050143390894,0.40184372663497925,20991.0791015625,402.0,0.0,1000.0,5.0,0.0,0.0,1500.0,0.0,0.0603883921190038,0.0,1.0,-2.7909471,0.0,-0.4283638596534729,-14.0,0.8898625373840332,1500.0,0.0,-3.0,-0.008726646259971648,214.0,1602.0,0.0,,,,,,,
1.3997670000000006,0.0,0.0,1568.0,17.0,0.0,0.0,-0.63,0.026259321719408035,-0.10558794438838959,0.07850181311368942,1491.0,-0.00017453292519943296,20.994654999999998,5.0,-9.594664573669434,0.0,2.7375489317531057,1500.0,0.0,51.4595461,0.0,20.975223,1418.0,0.0009780506370589137,0.40491631627082825,20991.0791015625,402.0,0.0,1000.0,5.0,0.0,0.0,1500.0,0.0,0.060039326268604934,0.0,1.0,-2.7909471,0.0,-0.3612707257270813,-14.0,1.4532090425491333,1500.0,0.0,-3.0,-0.008726646259971648,214.0,1602.0,0.0,,,,,,,
1.499759000000001,0.0,0.0,1569.0,17.0,0.0,0.0,-0.59,0.02066819928586483,0.1075691282749176,0.07651733607053757,1490.0,-0.00034906585039886593,21.094647,5.0,-9.57055377960205,0.0,2.7377234646783055,1500.0,0.0,51.4595462,0.0,21.055049999999998,1417.0,0.002336591947823763,0.40673398971557617,20989.505126953125,402.0,0.0,1000.0,5.0,0.0,0.0,1500.0,0.0,0.059864793343405505,0.0,1.0,-2.7909474,-0.00017453292519943296,-0.4128808081150055,-14.0,1.3739873170852661,1500.0,0.0,-3.0,-0.009773843811168246,214.0,1603.0,0.0,,,,,,,
1.5997460000000032,0.0,0.0,1568.0,17.0,0.0,0.0,-0.59,0.02108626626431942,0.17599156498908997,0.0785277932882309,1491.0,-0.0005235987755982988,21.194634,5.0,-9.785539627075195,0.0,2.738072530528704,1500.0,0.0,51.4595462,0.0,21.174909,1417.0,-0.001958064967766404,0.4087495803833008,20989.505126953125,402.0,0.0,1000.0,5.0,0.0,0.0,1500.0,0.0,0.05969026041820607,0.0,1.0,-2.7909474,-0.00017453292519943296,-0.3199826180934906,-14.0,1.1022987365722656,1500.0,0.0,-3.0,-0.011519173063162575,214.0,1603.0,0.0,,,,,,,
1.699784000000001,0.0,0.0,1568.0,17.0,0.0,0.0,-0.54,0.0164470374584198,-0.3603789210319519,0.06393793225288391,1491.0,-0.0006981317007977319,21.294672,5.0,-9.755166053771973,0.0,2.737897997603505,1500.0,0.0,51.459546499999995,0.0,21.255025,1418.0,-0.008186967112123966,0.40906238555908203,20989.505126953125,402.0,0.0,1000.0,5.0,0.0,0.0,1500.0,0.0,0.05969026041820607,0.0,1.0,-2.7909476,-0.00017453292519943296,-0.4696519374847412,-14.0,1.073244571685791,1500.0,0.0,-3.0,-0.009250245035569947,214.0,1602.0,0.0,,,,,,,
1.7997760000000014,0.0,0.0,1568.0,17.0,0.0,0.0,-0.54,0.013657606206834316,0.1871097981929779,0.08010684698820114,1491.0,-0.0008726646259971648,21.394664,5.0,-9.29464340209961,0.0,2.7375489317531057,1500.0,0.0,51.459546499999995,0.0,21.374862999999998,1418.0,0.007284282241016626,0.40948793292045593,21006.301025390625,402.0,0.0,1000.0,5.0,0.0,0.0,1500.0,0.0,0.059864793343405505,0.0,1.0,-2.7909476,-0.00034906585039886593,-0.35610970854759216,-14.0,1.682654619216919,1500.0,0.0,-3.0,-0.007155849933176752,214.0,1602.0,0.0,,,,,,,
1.8997830000000029,0.0,0.0,1568.0,17.0,0.0,0.0,-0.49,0.006836278364062309,0.3229566812515259,0.07521799951791763,1491.0,-0.0010471975511965976,21.494671,5.0,-9.649028778076172,0.0,2.737897997603505,1500.0,0.0,51.4595469,0.0,21.455002999999998,1418.0,0.006560475565493107,0.4101189374923706,20992.653076171875,402.0,0.0,1000.0,5.0,0.0,0.0,1500.0,0.0,0.059864793343405505,0.0,1.0,-2.7909478,-0.00034906585039886593,-0.4128808081150055,-14.0,1.4664623737335205,1500.0,0.0,-3.0,-0.009075712110370514,214.0,1602.0,0.0,,,,,,,
1.999964000000002,0.0,0.0,1568.0,17.0,0.0,0.0,-0.49,0.0014080263208597898,0.004068853333592415,0.07136308401823044,1490.0,-0.0012217304763960308,21.594852,5.0,-9.803224563598633,0.0,2.7375489317531057,1501.0,0.0,51.4595469,0.0,21.575347,1417.0,0.005354190710932016,0.41016364097595215,20992.653076171875,402.0,0.0,1000.0,5.0,0.0,0.0,1500.0,0.0,0.06021385919380437,0.0,1.0,-2.7909478,-0.0005235987755982988,-0.3457876741886139,-14.0,0.8579813838005066,1500.0,0.0,-3.0,-0.006806784082777886,214.0,1603.0,0.0,,,,,,,
2.0997800000000026,0.0,0.0,1568.0,16.0,0.0,0.0,-0.45,0.0165390782058239,0.20061731338500977,0.0706094354391098,1491.0,-0.0013962634015954637,21.694668,5.0,-9.751459121704102,0.0,2.7375489317531057,1500.0,0.0,51.459547099999995,0.0,21.655120999999998,1418.0,-0.005764065310359001,0.4099540114402771,20989.505126953125,402.0,0.0,1000.0,5.0,0.0,0.0,1500.0,0.0,0.06021385919380437,0.0,1.0,-2.7909479,-0.0005235987755982988,-0.42320284247398376,-14.0,1.0765776634216309,1500.0,0.0,-3.0,-0.007853981633974483,214.0,1602.0,0.0,,,,,,,
2.1997730000000004,0.0,0.0,1568.0,16.0,0.0,0.0,-0.45,0.007350515108555555,-0.013685368932783604,0.0530828982591629,1491.0,-0.0015707963267948964,21.794660999999998,5.0,-9.66313648223877,0.0,2.737897997603505,1500.0,0.0,51.459547099999995,0.0,21.774921,1418.0,-0.001217851066030562,0.409540057182312,20989.505126953125,402.0,0.0,1000.0,5.0,0.0,0.0,1500.0,0.0,0.0603883921190038,0.0,1.0,-2.7909479,-0.0006981317007977319,-0.43352484703063965,-14.0,1.2186601161956787,1500.0,0.0,-3.0,-0.008726646259971648,214.0,1602.0,0.0,,,,,,,
2.299755000000001,0.0,0.0,1568.0,17.0,0.0,0.0,-0.42,0.013407249003648758,-0.051367588341236115,0.05076909810304642,1490.0,-0.0019198621771937625,21.894643,5.0,-9.848220825195312,0.0,2.7375489317531057,1501.0,0.0,51.4595474,0.0,21.85504,1417.0,-0.006622644141316414,0.40997716784477234,20948.15283203125,402.0,0.0,1000.0,5.0,0.0,0.0,1500.0,0.0,0.06056292504420324,0.0,1.0,-2.7909481,-0.0006981317007977319,-0.4128808081150055,-14.0,1.0203229188919067,1500.0,0.0,-3.0,-0.006283185307179586,214.0,1603.0,0.0,,,,,,,
2.399776000000003,0.0,0.0,1568.0,17.0,0.0,0.0,-0.42,0.0072060562670230865,-0.03971816971898079,0.04131129011511803,1490.0,-0.0020943951023931952,21.994664,5.0,-9.738001823425293,0.0,2.7375489317531057,1500.0,0.0,51.4595474,0.0,21.975310999999998,1417.0,-0.00571209192276001,0.41091686487197876,20948.15283203125,402.0,0.0,1001.0,5.0,0.0,0.0,1500.0,0.0,0.06073745796940267,0.0,1.0,-2.7909481,-0.0008726646259971648,-0.44900789856910706,-14.0,1.050735354423523,1501.0,0.0,-3.0,-0.006457718232379019,214.0,1603.0,0.0,,,,,,,
2.4996270000000003,0.0,0.0,1568.0,17.0,0.0,0.0,-0.39,0.012801510281860828,-0.07739377021789551,0.029616553336381912,1491.0,-0.0022689280275926286,22.094514999999998,5.0,-10.064009666442871,0.0,2.7371998659027073,1500.0,0.0,51.459547699999995,0.0,22.054990999999998,1417.0,-0.00808543898165226,0.4118039608001709,18375.1162109375,402.0,0.0,1000.0,5.0,0.0,0.0,1500.0,0.0,0.06126105674500097,0.0,1.0,-2.7909482,-0.0008726646259971648,-0.45932990312576294,-14.0,0.9666191935539246,1500.0,0.0,-3.0,-0.004537856055185257,214.0,1603.0,0.0,,,,,,,
2.5997800000000026,0.0,0.0,1568.0,17.0,0.0,0.00017453292519943296,-0.39,0.010522178374230862,-0.310269832611084,0.02981702797114849,1491.0,-0.0024434609527920616,22.194668,5.0,-10.034749984741211,0.0,2.736501734201909,1500.0,0.0,51.459547699999995,0.0,22.174896,1418.0,-0.005810899194329977,0.41433101892471313,18375.1162109375,402.0,0.0,1000.0,5.0,0.0,0.0,1500.0,0.0,0.06161012259539984,0.0,1.0,-2.7909482,-0.0010471975511965976,-0.4128808081150055,-14.0,1.1455310583114624,1500.0,0.0,-3.0,0.0005235987755982988,214.0,1602.0,0.0,,,,,,,
2.699786000000003,0.0,0.0,1569.0,17.0,0.0,0.00017453292519943296,-0.37,-0.003102389397099614,0.13733644783496857,0.022501328960061073,1490.0,-0.002617993877991494,22.294674,5.0,-9.59566879272461,0.0,2.736501734201909,1500.0,0.0,51.459548,0.0,22.255084999999998,1417.0,0.00023222508025355637,0.41571366786956787,17933.389892578125,402.0,0.0,1000.0,5.0,0.0,0.0,1500.0,0.0,0.06213372137099813,0.0,1.0,-2.7909482,-0.0010471975511965976,-0.3973977863788605,-14.0,1.0666660070419312,1501.0,0.0,-3.0,-0.0005235987755982988,214.0,1603.0,0.0,,,,,,,
2.7999870000000016,0.0,0.0,1569.0,17.0,0.0,0.00034906585039886593,-0.37,0.002577447099611163,-0.00885685533285141,0.01848338171839714,1490.0,-0.0027925268031909274,22.394875,5.0,-9.617015838623047,0.0,2.7361526683515107,1500.0,0.0,51.459548,0.0,22.374892,1417.0,0.003964073024690151,0.4167020320892334,17933.389892578125,402.0,0.0,1000.0,5.0,0.0,0.0,1500.0,0.0,0.06300638599699529,0.0,1.0,-2.7909482,-0.0012217304763960308,-0.5573890805244446,-14.0,1.239330768585205,1500.0,0.0,-3.0,0.00034906585039886593,214.0,1603.0,0.0,,,,,,,
2.899788000000001,0.0,0.0,1568.0,17.0,0.0,0.00034906585039886593,-0.32,0.0074927350506186485,0.2900732457637787,0.013134347274899483,1491.0,-0.0027925268031909274,22.494676,5.0,-9.667015075683594,0.0,2.7361526683515107,1500.0,0.0,51.4595485,0.0,22.455054999999998,1418.0,-0.005867078900337219,0.41903382539749146,17933.389892578125,402.0,0.0,1000.0,5.0,0.0,0.0,1500.0,0.0,0.06318091892219473,0.0,1.0,-2.7909482999999997,-0.0012217304763960308,-0.4644909203052521,-14.0,1.0779591798782349,1500.0,0.0,-3.0,-0.0008726646259971648,214.0,1602.0,0.0,,,,,,,
2.999813000000003,0.0,0.0,1568.0,17.0,0.0,0.0005235987755982988,-0.32,0.011528288945555687,0.14916935563087463,0.0005967838224023581,1491.0,-0.0029670597283903604,22.594701,5.0,-9.952972412109375,0.0,2.7356290695759125,1500.0,0.0,51.4595485,0.0,22.575426,1418.0,-0.0009622412617318332,0.4251320958137512,19061.018798828125,402.0,0.0,1000.0,5.0,0.0,0.0,1500.0,0.0,0.06318091892219473,0.0,1.0,-2.7909482999999997,-0.0012217304763960308,-0.43352484703063965,-14.0,1.2986316680908203,1500.0,0.0,-3.0,0.0,214.0,1602.0,0.0,,,,,,,
3.0997510000000013,0.0,0.0,1568.0,17.0,0.0,0.0005235987755982988,-0.28,0.006009913049638271,0.2984187602996826,0.0001754692057147622,1491.0,-0.0029670597283903604,22.694639,5.0,-9.742013931274414,0.0,2.7356290695759125,1500.0,0.0,51.459548899999994,0.0,22.655006,1418.0,-0.0034874414559453726,0.428529292345047,17933.389892578125,402.0,0.0,1000.0,5.0,0.0,0.0,1500.0,0.0,0.06335545184739416,0.0,1.0,-2.7909482999999997,-0.0012217304763960308,-0.4025588035583496,-14.0,0.9291127920150757,1500.0,0.0,-3.0,-0.00017453292519943296,214.0,1602.0,0.0,,,,,,,
3.19979,0.0,0.0,1568.0,17.0,0.0,0.0005235987755982988,-0.28,0.00913103949278593,0.35054439306259155,-0.011405419558286667,1491.0,-0.0029670597283903604,22.794677999999998,5.0,-9.768209457397461,0.0,2.735280003725513,1500.0,0.0,51.459548899999994,0.0,22.775009999999998,1418.0,-0.0020978704560548067,0.43137192726135254,17933.389892578125,402.0,0.0,1000.0,5.0,0.0,0.0,1500.0,0.0,0.06405358354819189,0.0,1.0,-2.7909482999999997,-0.0013962634015954637,-0.3767537474632263,-14.0,1.1962686777114868,1500.0,0.0,-3.0,-0.00034906585039886593,214.0,1602.0,0.0,,,,,,,
3.299968,0.0,0.0,1568.0,17.0,0.0,0.0006981317007977319,-0.22,0.0161746796220541,-0.5362444519996643,-0.027228519320487976,1491.0,-0.0029670597283903604,22.894855999999997,5.0,-9.940733909606934,0.0,2.734756404949915,1500.0,0.0,51.4595493,0.0,22.855059999999998,1418.0,-0.013287375681102276,0.4323708713054657,17933.389892578125,402.0,0.0,1000.0,5.0,0.0,0.0,1500.0,0.0,0.06405358354819189,0.0,1.0,-2.7909484,-0.0013962634015954637,-0.3870757520198822,-14.0,1.1892716884613037,1500.0,0.0,-3.0,0.0017453292519943296,214.0,1602.0,0.0,,,,,,,
3.399660000000001,0.0,0.0,1568.0,17.0,0.0,0.0008726646259971648,-0.22,-0.001561917131766677,0.8678581118583679,-0.010793481953442097,1491.0,-0.003141592653589793,22.994547999999998,5.0,-9.516600608825684,0.0,2.7349309378751148,1500.0,0.0,51.4595493,0.0,22.975185,1418.0,0.008530762977898121,0.43178486824035645,17933.389892578125,402.0,0.0,1000.0,5.0,0.0,0.0,1500.0,0.0,0.06422811647339133,0.0,1.0,-2.7909484,-0.0013962634015954637,-0.4386858642101288,-14.0,1.2873344421386719,1500.0,0.0,-3.0,-0.003665191429188092,214.0,1602.0,0.0,,,,,,,
3.4997830000000008,0.0,0.0,1568.0,17.0,0.0,0.0008726646259971648,-0.16,0.004000573419034481,-0.9541409015655518,-0.06231793016195297,1491.0,-0.003141592653589793,23.094670999999998,5.0,-9.76048469543457,0.0,2.7338837403239182,1500.0,0.0,51.4595498,0.0,23.05503,1418.0,-0.019939344376325607,0.43095991015434265,17019.896728515625,402.0,0.0,1000.0,5.0,0.0,0.0,1500.0,0.0,0.0645771823237902,0.0,1.0,-2.7909485,-0.0013962634015954637,-0.4025588035583496,-14.0,1.057748556137085,1500.0,0.0,-3.0,0.0020943951023931952,214.0,1602.0,0.0,,,,,,,
3.599767,0.0,0.0,1568.0,17.0,0.0,0.0010471975511965976,-0.16,0.004766679834574461,0.892341136932373,-0.007291455753147602,1491.0,-0.003141592653589793,23.194654999999997,5.0,-9.834430694580078,0.0,2.7338837403239182,1500.0,0.0,51.4595498,0.0,23.174882999999998,1418.0,0.007147800177335739,0.42998069524765015,17933.389892578125,402.0,0.0,1000.0,5.0,0.0,0.0,1500.0,0.0,0.0645771823237902,0.0,1.0,-2.7909485,-0.0013962634015954637,-0.5419060587882996,-14.0,1.0925804376602173,1500.0,0.0,-3.0,-0.0008726646259971648,214.0,1602.0,0.0,,,,,,,
3.6997890000000027,0.0,0.0,1569.0,16.0,0.0,0.0012217304763960308,-0.16,0.0020329307299107313,-0.7097399234771729,-0.06346484273672104,1490.0,-0.003141592653589793,23.294677,5.0,-9.77670669555664,0.0,2.73318560862312,1500.0,0.0,51.459550099999994,0.0,23.254970999999998,1417.0,-0.017109330743551254,0.43057411909103394,17933.389892578125,402.0,0.0,1000.0,5.0,0.0,0.0,1500.0,0.0,0.06475171524898962,0.0,1.0,-2.7909485999999997,-0.0013962634015954637,-0.5212620496749878,-14.0,1.1039812564849854,1500.0,0.0,-3.0,0.0019198621771937625,214.0,1603.0,0.0,,,,,,,
3.799792,0.0,0.0,1568.0,16.0,0.0,0.0012217304763960308,-0.16,0.003983919508755207,0.7880275845527649,-0.016189171001315117,1491.0,-0.003141592653589793,23.394679999999997,5.0,-9.790204048156738,0.0,2.7328365427727213,1500.0,0.0,51.459550099999994,0.0,23.374909,1417.0,0.006443521473556757,0.43469882011413574,18672.060791015625,402.0,0.0,1000.0,5.0,0.0,0.0,1500.0,0.0,0.06492624817418906,0.0,1.0,-2.7909485999999997,-0.0013962634015954637,-0.48513495922088623,-14.0,1.1164772510528564,1500.0,0.0,-3.0,0.0,214.0,1603.0,0.0,,,,,,,
3.899810000000002,0.0,0.0,1568.0,15.0,0.0,0.0013962634015954637,-0.15,0.0038562107365578413,-0.5581045150756836,-0.06423727422952652,1490.0,-0.003141592653589793,23.494698,5.0,-9.73764705657959,0.0,2.732138411071923,1501.0,0.0,51.4595504,0.0,23.455119,1417.0,-0.014233340509235859,0.43826478719711304,18672.060791015625,402.0,0.0,1000.0,5.0,0.0,0.0,1500.0,0.0,0.06492624817418906,0.0,1.0,-2.7909481,-0.0013962634015954637,-0.4025588035583496,-14.0,1.1217926740646362,1500.0,0.0,-3.0,0.0020943951023931952,214.0,1603.0,0.0,,,,,,,
3.9997480000000003,0.0,0.0,1568.0,15.0,0.0,0.0013962634015954637,-0.15,0.006736266892403364,0.6746048927307129,-0.023198183625936508,1490.0,-0.0029670597283903604,23.594635999999998,5.0,-9.784578323364258,0.0,2.731614812296325,1500.0,0.0,51.4595504,0.0,23.575174999999998,1417.0,0.005657798610627651,0.4423648416996002,20997.375,402.0,0.0,1001.0,5.0,0.0,0.0,1501.0,0.0,0.06492624817418906,0.0,1.0,-2.7909481,-0.0013962634015954637,-0.5419060587882996,-14.0,1.136724829673767,1500.0,0.0,-3.0,0.0005235987755982988,214.0,1603.0,0.0,,,,,,,
4.099765000000001,0.0,0.0,1568.0,17.0,0.0,0.0015707963267948964,-0.07,0.005567849148064852,-0.4639521539211273,-0.06423399597406387,1491.0,-0.0029670597283903604,23.694653,5.0,-9.745832443237305,0.0,2.7309166805955276,1500.0,0.0,51.4595506,0.0,23.655082,1417.0,-0.012251678854227066,0.44527751207351685,20990.02978515625,402.0,0.0,1000.0,5.0,0.0,0.0,1500.0,0.0,0.0651007810993885,0.0,1.0,-2.7909481,-0.0013962634015954637,-0.43352484703063965,-14.0,1.140212059020996,1500.0,0.0,-3.0,0.0020943951023931952,214.0,1603.0,0.0,,,,,,,
4.199782000000003,0.0,0.0,1568.0,17.0,0.0,0.0015707963267948964,-0.07,0.007794057950377464,0.5732362866401672,-0.028094103559851646,1491.0,-0.0029670597283903604,23.79467,5.0,-9.77497673034668,0.0,2.730393081819929,1500.0,0.0,51.4595506,0.0,23.774886,1417.0,0.004514922853559256,0.44995248317718506,20990.02978515625,402.0,0.0,1000.0,5.0,0.0,0.0,1500.0,0.0,0.0651007810993885,0.0,1.0,-2.7909481,-0.0013962634015954637,-0.4954569935798645,-14.0,1.1316206455230713,1500.0,0.0,-3.0,0.0006981317007977319,214.0,1603.0,0.0,,,,,,,
4.299748000000001,0.0,0.0,1568.0,17.0,0.0,0.0017453292519943296,0.09,0.006972113158553839,-0.3925745189189911,-0.06373072415590286,1491.0,-0.0029670597283903604,23.894636,5.0,-9.748478889465332,0.0,2.7298694830443306,1500.0,0.0,51.4595511,0.0,23.855010999999998,1418.0,-0.010674500837922096,0.45270922780036926,19565.82373046875,402.0,0.0,1000.0,5.0,0.0,0.0,1500.0,0.0,0.0651007810993885,0.0,1.0,-2.7909482,-0.0012217304763960308,-0.6502872705459595,-14.0,1.1278021335601807,1500.0,0.0,-3.0,0.0019198621771937625,214.0,1602.0,0.0,,,,,,,
4.3997920000000015,0.0,0.0,1568.0,17.0,0.0,0.0017453292519943296,0.09,0.010161767713725567,0.5034449696540833,-0.03131965175271034,1491.0,-0.0029670597283903604,23.99468,5.0,-9.775068283081055,0.0,2.7291713513435334,1500.0,0.0,51.4595511,0.0,23.975433,1418.0,0.004417048767209053,0.4604766368865967,19565.82373046875,402.0,0.0,1000.0,5.0,0.0,0.0,1500.0,0.0,0.0651007810993885,0.0,1.0,-2.7909482,-0.0012217304763960308,-0.5057790279388428,-14.0,1.134379506111145,1500.0,0.0,-3.0,0.0008726646259971648,214.0,1602.0,0.0,,,,,,,
4.499794000000001,0.0,0.0,1568.0,16.0,0.0,0.0019198621771937625,0.25,0.010900069028139114,-0.3287225365638733,-0.06224412843585014,1491.0,-0.0029670597283903604,24.094682,5.0,-9.747962951660156,0.0,2.7286477525679347,1500.0,0.0,51.459551499999996,0.0,24.055065,1418.0,-0.00853638630360365,0.4671468436717987,19565.82373046875,402.0,0.0,1000.0,5.0,0.0,0.0,1500.0,0.0,0.0651007810993885,0.0,1.0,-2.7909482,-0.0012217304763960308,-0.5212620496749878,-14.0,1.1435000896453857,1500.0,0.0,-3.0,0.0019198621771937625,214.0,1602.0,0.0,,,,,,,
4.599658000000002,0.0,0.0,1568.0,16.0,0.0,0.0019198621771937625,0.25,0.014980832114815712,0.44351428747177124,-0.03394139185547829,1491.0,-0.0029670597283903604,24.194546,5.0,-9.755496978759766,0.0,2.7281241537923364,1500.0,0.0,51.459551499999996,0.0,24.174892,1418.0,0.005197306163609028,0.476412296295166,19565.82373046875,402.0,0.0,1000.0,5.0,0.0,0.0,1500.0,0.0,0.0651007810993885,0.0,1.0,-2.7909482,-0.0012217304763960308,-0.4644909203052521,-14.0,1.142108678817749,1500.0,0.0,-3.0,0.0010471975511965976,214.0,1602.0,0.0,,,,,,,
4.699791000000001,0.0,0.0,1568.0,16.0,0.0,0.0019198621771937625,0.4,0.01534544862806797,-0.2752716541290283,-0.06068464741110802,1491.0,-0.0027925268031909274,24.294679,5.0,-9.74856948852539,0.0,2.727600555016738,1500.0,0.0,51.4595519,0.0,24.255043999999998,1418.0,-0.005411047488451004,0.4815499484539032,18672.060791015625,402.0,0.0,1000.0,5.0,0.0,0.0,1500.0,0.0,0.0651007810993885,0.0,1.0,-2.7909482,-0.0012217304763960308,-0.4799739420413971,-14.0,1.1380014419555664,1500.0,0.0,-3.0,0.0019198621771937625,214.0,1602.0,0.0,,,,,,,
4.799768,0.0,0.0,1568.0,16.0,0.0,0.0020943951023931952,0.4,0.01725432090461254,0.4116693139076233,-0.03600110113620758,1491.0,-0.0027925268031909274,24.394655999999998,5.0,-9.76137924194336,0.0,2.72707695624114,1500.0,0.0,51.4595519,0.0,24.37489,1418.0,0.006783336400985718,0.487307071685791,19067.07373046875,402.0,0.0,1000.0,5.0,0.0,0.0,1500.0,0.0,0.0651007810993885,0.0,1.0,-2.7909482,-0.0012217304763960308,-0.43352484703063965,-14.0,1.148084044456482,1500.0,0.0,-3.0,0.0010471975511965976,214.0,1602.0,0.0,,,,,,,
4.899746,0.0,0.0,1568.0,16.0,0.0,0.0020943951023931952,0.51,0.016542905941605568,-0.2375504970550537,-0.058751173317432404,1490.0,-0.0027925268031909274,24.494633999999998,5.0,-9.731492042541504,0.0,2.7265533574655416,1500.0,0.0,51.4595524,0.0,24.455043999999997,1417.0,-0.0028160521760582924,0.4896206855773926,18672.060791015625,402.0,0.0,1001.0,5.0,0.0,0.0,1500.0,0.0,0.0651007810993885,0.0,1.0,-2.7909481,-0.0012217304763960308,-0.5780331492424011,-14.0,1.1405487060546875,1501.0,0.0,-3.0,0.0017453292519943296,214.0,1603.0,0.0,,,,,,,
4.999865,0.0,0.0,1569.0,16.0,0.0,0.0020943951023931952,0.51,0.01742558553814888,0.37898701429367065,-0.03687899932265282,1490.0,-0.0027925268031909274,24.594752999999997,5.0,-9.756558418273926,0.0,2.726204291615143,1500.0,0.0,51.4595524,0.0,24.575447999999998,1417.0,0.007789277471601963,0.4935429096221924,18672.060791015625,402.0,0.0,1000.0,5.0,0.0,0.0,1500.0,0.0,0.0651007810993885,0.0,1.0,-2.7909481,-0.0012217304763960308,-0.5212620496749878,-14.0,1.1353319883346558,1500.0,0.0,-3.0,0.0008726646259971648,214.0,1603.0,0.0,,,,,,,
5.0997720000000015,0.0,0.0,1568.0,16.0,0.0,0.0020943951023931952,0.6,0.01695326529443264,-0.19686762988567352,-0.055897001177072525,1491.0,-0.0027925268031909274,24.69466,5.0,-9.734743118286133,0.0,2.725855225764744,1500.0,0.0,51.459552699999996,0.0,24.655053,1418.0,-0.0006661398219875991,0.4971902072429657,18486.321533203125,402.0,0.0,1000.0,5.0,0.0,0.0,1500.0,0.0,0.0651007810993885,0.0,1.0,-2.7909481,-0.0012217304763960308,-0.5315840244293213,-14.0,1.141666054725647,1500.0,0.0,-3.0,0.0017453292519943296,214.0,1602.0,0.0,,,,,,,
5.20017,0.0,0.0,1568.0,16.0,0.0,0.0020943951023931952,0.6,0.01872139796614647,0.35268816351890564,-0.0364484041929245,1491.0,-0.0027925268031909274,24.795057999999997,5.0,-9.770475387573242,0.0,2.725506159914345,1500.0,0.0,51.459552699999996,0.0,24.774884999999998,1418.0,0.007957017049193382,0.5028395056724548,18672.060791015625,402.0,0.0,1000.0,5.0,0.0,0.0,1500.0,0.0,0.0651007810993885,0.0,1.0,-2.7909481,-0.0012217304763960308,-0.5522280931472778,-14.0,1.1467268466949463,1500.0,0.0,-3.0,0.0008726646259971648,214.0,1602.0,0.0,,,,,,,
5.299805000000003,0.0,0.0,1569.0,16.0,0.0,0.0020943951023931952,0.68,0.018471993505954742,-0.16831068694591522,-0.052980486303567886,1490.0,-0.002617993877991494,24.894693,5.0,-9.736092567443848,0.0,2.7251570940639462,1500.0,0.0,51.4595529,0.0,24.855083,1417.0,0.0009013972012326121,0.5069913864135742,18672.060791015625,402.0,0.0,1000.0,5.0,0.0,0.0,1500.0,0.0,0.0651007810993885,0.0,1.0,-2.7909479,-0.0012217304763960308,-0.4696519374847412,-14.0,1.1535334587097168,1500.0,0.0,-3.0,0.0015707963267948964,214.0,1603.0,0.0,,,,,,,
5.399812000000001,0.0,0.0,1568.0,16.0,0.0,0.0020943951023931952,0.68,0.02043023146688938,0.31964120268821716,-0.03607780113816261,1491.0,-0.002617993877991494,24.994699999999998,5.0,-9.756048202514648,0.0,2.724982561138747,1500.0,0.0,51.4595529,0.0,24.975255999999998,1417.0,0.00813783798366785,0.5122179388999939,18672.060791015625,402.0,0.0,1000.0,5.0,0.0,0.0,1500.0,0.0,0.0651007810993885,0.0,1.0,-2.7909479,-0.0012217304763960308,-0.5315840244293213,-14.0,1.1610981225967407,1500.0,0.0,-3.0,0.0006981317007977319,214.0,1603.0,0.0,,,,,,,
5.499750000000002,0.0,0.0,1568.0,16.0,0.0,0.0022689280275926286,0.74,0.01965291239321232,-0.15344436466693878,-0.04970531910657883,1491.0,-0.002617993877991494,25.094638,5.0,-9.736513137817383,0.0,2.724633495288348,1500.0,0.0,51.459553199999995,0.0,25.055051,1418.0,0.0013164974516257644,0.5149784088134766,18537.72607421875,402.0,0.0,1000.0,5.0,0.0,0.0,1500.0,0.0,0.0651007810993885,0.0,1.0,-2.7909477,-0.0012217304763960308,-0.49029597640037537,-14.0,1.1422450542449951,1500.0,0.0,-3.0,0.0015707963267948964,214.0,1602.0,0.0,,,,,,,
5.599801000000003,0.0,0.0,1568.0,16.0,0.0,0.0022689280275926286,0.74,0.02063925936818123,0.28766000270843506,-0.03396345674991608,1491.0,-0.002617993877991494,25.194689,5.0,-9.761374473571777,0.0,2.724458962363148,1500.0,0.0,51.459553199999995,0.0,25.174906999999997,1418.0,0.007963467389345169,0.5185278654098511,18672.060791015625,402.0,0.0,1000.0,5.0,0.0,0.0,1500.0,0.0,0.06492624817418906,0.0,1.0,-2.7909477,-0.0012217304763960308,-0.5883551836013794,-14.0,1.15409255027771,1500.0,0.0,-3.0,0.0005235987755982988,214.0,1602.0,0.0,,,,,,,
5.7000480000000024,0.0,0.0,1568.0,16.0,0.0,0.0020943951023931952,0.87,0.0205805916339159,-0.14145275950431824,-0.04605118930339813,1491.0,-0.002617993877991494,25.294936,5.0,-9.733758926391602,0.0,2.7241098965127497,1500.0,0.0,51.459553299999996,0.0,25.255065,1417.0,0.002517665270715952,0.5214101076126099,18672.060791015625,402.0,0.0,1000.0,5.0,0.0,0.0,1500.0,0.0,0.06492624817418906,0.0,1.0,-2.7909474,-0.0010471975511965976,-0.5006179809570312,-14.0,1.1402331590652466,1500.0,0.0,-3.0,0.0013962634015954637,214.0,1603.0,0.0,,,,,,,
5.799775,0.0,0.0,1568.0,16.0,0.0,0.0020943951023931952,0.87,0.021754788234829903,0.2828928232192993,-0.0326271690428257,1491.0,-0.002617993877991494,25.394662999999998,5.0,-9.755784034729004,0.0,2.72393536358755,1500.0,0.0,51.459553299999996,0.0,25.374872999999997,1417.0,0.007906230166554451,0.5260728001594543,18672.060791015625,402.0,0.0,1000.0,5.0,0.0,0.0,1500.0,0.0,0.06492624817418906,0.0,1.0,-2.7909474,-0.0010471975511965976,-0.5212620496749878,-14.0,1.1539477109909058,1500.0,0.0,-3.0,0.0005235987755982988,214.0,1603.0,0.0,,,,,,,
5.899799000000002,0.0,0.0,1568.0,17.0,0.0,0.0020943951023931952,1.01,0.02100299298763275,-0.11336559057235718,-0.04310714453458786,1491.0,-0.0024434609527920616,25.494687,5.0,-9.740580558776855,0.0,2.7235862977371514,1500.0,0.0,51.4595536,0.0,25.455018,1418.0,0.002911726711317897,0.5284628868103027,18537.72607421875,402.0,0.0,1000.0,5.0,0.0,0.0,1500.0,0.0,0.06492624817418906,0.0,1.0,-2.7909471999999997,-0.0010471975511965976,-0.5315840244293213,-14.0,1.1376606225967407,1500.0,0.0,-3.0,0.0012217304763960308,214.0,1602.0,0.0,,,,,,,
5.999985000000002,0.0,0.0,1568.0,17.0,0.0,0.0020943951023931952,1.01,0.021092616021633148,0.26799631118774414,-0.031131727620959282,1491.0,-0.0024434609527920616,25.594873,5.0,-9.755448341369629,0.0,2.7235862977371514,1500.0,0.0,51.4595536,0.0,25.575302999999998,1418.0,0.008111018687486649,0.531787097454071,18672.060791015625,402.0,0.0,1000.0,5.0,0.0,0.0,1500.0,0.0,0.06475171524898962,0.0,1.0,-2.7909471999999997,-0.0010471975511965976,-0.5986771583557129,-14.0,1.154426097869873,1500.0,0.0,-3.0,0.00034906585039886593,214.0,1602.0,0.0,,,,,,,
6.099756000000003,0.0,0.0,1568.0,15.0,0.0,0.0020943951023931952,1.12,0.021088477224111557,-0.0954662412405014,-0.04022930935025215,1490.0,-0.0024434609527920616,25.694644,5.0,-9.754932403564453,0.0,2.7232372318867526,1501.0,0.0,51.4595537,0.0,25.65503,1417.0,0.0035609244368970394,0.5348212122917175,18672.060791015625,402.0,0.0,1000.0,5.0,0.0,0.0,1500.0,0.0,0.06475171524898962,0.0,1.0,-2.7909471,-0.0010471975511965976,-0.44900789856910706,-14.0,1.1501810550689697,1500.0,0.0,-3.0,0.0012217304763960308,214.0,1603.0,0.0,,,,,,,
6.199796000000003,0.0,0.0,1568.0,15.0,0.0,0.0020943951023931952,1.12,0.02111249603331089,0.24788668751716614,-0.03056548349559307,1490.0,-0.0024434609527920616,25.794684,5.0,-9.753286361694336,0.0,2.7232372318867526,1500.0,0.0,51.4595537,0.0,25.774919,1417.0,0.007160322740674019,0.5382764339447021,18672.060791015625,402.0,0.0,1001.0,5.0,0.0,0.0,1501.0,0.0,0.06475171524898962,0.0,1.0,-2.7909471,-0.0010471975511965976,-0.6193212270736694,-14.0,1.1545125246047974,1500.0,0.0,-3.0,0.00034906585039886593,214.0,1603.0,0.0,,,,,,,
6.299768,0.0,0.0,1568.0,17.0,0.0,0.0020943951023931952,1.25,0.020610688254237175,-0.07536087185144424,-0.038003887981176376,1491.0,-0.0024434609527920616,25.894655999999998,5.0,-9.748269081115723,0.0,2.7228881660363533,1500.0,0.0,51.4595542,0.0,25.855047,1418.0,0.003017546609044075,0.5405176877975464,18537.72607421875,402.0,0.0,1000.0,5.0,0.0,0.0,1500.0,0.0,0.06475171524898962,0.0,1.0,-2.7909469,-0.0010471975511965976,-0.5006179809570312,-14.0,1.1456053256988525,1500.0,0.0,-3.0,0.0010471975511965976,214.0,1602.0,0.0,,,,,,,
6.399728,0.0,0.0,1568.0,17.0,0.0,0.0020943951023931952,1.25,0.021163789555430412,0.23285554349422455,-0.02980196103453636,1491.0,-0.0024434609527920616,25.994615999999997,5.0,-9.755436897277832,0.0,2.7228881660363533,1500.0,0.0,51.4595542,0.0,25.975215,1418.0,0.006368857342749834,0.544304370880127,18537.72607421875,402.0,0.0,1000.0,5.0,0.0,0.0,1500.0,0.0,0.0645771823237902,0.0,1.0,-2.7909469,-0.0010471975511965976,-0.350948691368103,-14.0,1.1525936126708984,1500.0,0.0,-3.0,0.00017453292519943296,214.0,1602.0,0.0,,,,,,,
6.499780000000001,0.0,0.0,1568.0,17.0,0.0,0.0020943951023931952,1.3900000000000001,0.019697513431310654,-0.06952705979347229,-0.036326032131910324,1490.0,-0.0024434609527920616,26.094668,5.0,-9.733977317810059,0.0,2.722713633111154,1500.0,0.0,51.4595547,0.0,26.055065,1417.0,0.003141768742352724,0.5435462594032288,18537.72607421875,402.0,0.0,1001.0,5.0,0.0,0.0,1500.0,0.0,0.0645771823237902,0.0,1.0,-2.7909468,-0.0010471975511965976,-0.5780331492424011,-14.0,1.150972604751587,1501.0,0.0,-3.0,0.0010471975511965976,214.0,1603.0,0.0,,,,,,,
6.599780000000003,0.0,0.0,1569.0,17.0,0.0,0.0020943951023931952,1.3900000000000001,0.017860624939203262,0.22341738641262054,-0.0287510696798563,1490.0,-0.0024434609527920616,26.194668,5.0,-9.756240844726562,0.0,2.722713633111154,1500.0,0.0,51.4595547,0.0,26.174868999999997,1417.0,0.0056984154507517815,0.5410513281822205,20951.811767578125,402.0,0.0,1000.0,5.0,0.0,0.0,1500.0,0.0,0.0645771823237902,0.0,1.0,-2.7909468,-0.0010471975511965976,-0.5109400153160095,-14.0,1.1454510688781738,1500.0,0.0,-3.0,0.00017453292519943296,214.0,1603.0,0.0,,,,,,,
6.699727000000003,0.0,0.0,1568.0,17.0,0.0,0.0020943951023931952,1.49,0.0162334144115448,-0.05285664275288582,-0.03426471725106239,1491.0,-0.0024434609527920616,26.294615,5.0,-9.751443862915039,0.0,2.722539100185955,1500.0,0.0,51.4595553,0.0,26.254998,1418.0,0.00247567193582654,0.5403681993484497,20951.811767578125,402.0,0.0,1000.0,5.0,0.0,0.0,1500.0,0.0,0.06440264939859076,0.0,1.0,-2.7909468,-0.0010471975511965976,-0.5212620496749878,-14.0,1.1593546867370605,1500.0,0.0,-3.0,0.0008726646259971648,214.0,1602.0,0.0,,,,,,,
6.799774000000003,0.0,0.0,1568.0,17.0,0.0,0.0020943951023931952,1.49,0.014642905443906784,0.21063612401485443,-0.028174007311463356,1491.0,-0.0022689280275926286,26.394662,5.0,-9.743967056274414,0.0,2.722539100185955,1500.0,0.0,51.4595553,0.0,26.374762,1418.0,0.004009295254945755,0.5393999218940735,20983.7373046875,402.0,0.0,1000.0,5.0,0.0,0.0,1500.0,0.0,0.06440264939859076,0.0,1.0,-2.7909468,-0.0010471975511965976,-0.5677111148834229,-14.0,1.1457579135894775,1500.0,0.0,-3.0,0.0,214.0,1602.0,0.0,,,,,,,
6.899759000000003,0.0,0.0,1569.0,17.0,0.0,0.0019198621771937625,1.6400000000000001,0.01351005956530571,-0.04201504960656166,-0.03304431959986687,1490.0,-0.0022689280275926286,26.494647,5.0,-9.738871574401855,0.0,2.722364567260755,1500.0,0.0,51.4595558,0.0,26.455253,1417.0,0.001733845449052751,0.5390050411224365,20951.811767578125,444.0,0.0,1000.0,5.0,0.0,0.0,1500.0,0.0,0.06440264939859076,0.0,1.0,-2.7909466,-0.0010471975511965976,-0.4644909203052521,-14.0,1.1506074666976929,1500.0,0.0,-3.0,0.0008726646259971648,197.0,1603.0,0.0,,,,,,,
6.999739000000002,0.0,0.0,1568.0,17.0,0.0,0.0019198621771937625,1.6400000000000001,0.01270634401589632,0.1992434561252594,-0.028829341754317284,1491.0,-0.0022689280275926286,26.594627,5.0,-9.753156661987305,0.0,2.722539100185955,1500.0,0.0,51.4595558,0.0,26.575252,1417.0,0.0037729344330728054,0.538829505443573,20951.811767578125,444.0,0.0,1000.0,5.0,0.0,0.0,1500.0,0.0,0.06440264939859076,0.0,1.0,-2.7909466,-0.0010471975511965976,-0.4541688859462738,-14.0,1.1438919305801392,1500.0,0.0,-3.0,0.0,197.0,1603.0,0.0,,,,,,,
7.099747000000001,0.0,0.0,1568.0,17.0,0.06679131090641022,0.0019198621771937625,1.75,0.0122383963316679,-0.03949549049139023,-0.03304493799805641,1491.0,-0.0022689280275926286,26.694634999999998,5.0,-9.754290580749512,0.0,2.722364567260755,1500.0,0.0,51.4595564,0.0,26.655047,1418.0,0.001719245221465826,0.5389344692230225,18537.72607421875,444.0,0.0,1000.0,5.0,0.0,0.0,1500.0,0.0,0.06440264939859076,0.0,1.0,-2.7909466,-0.0010471975511965976,-0.5625501275062561,-14.0,1.1542506217956543,1500.0,0.0,-3.0,0.0008726646259971648,197.0,1602.0,0.0,,,,,,,
7.199799000000002,0.0,0.0,1568.0,17.0,0.06679131090641022,0.0019198621771937625,1.75,0.011249086819589138,0.18336477875709534,-0.030392756685614586,1491.0,-0.0022689280275926286,26.794687,5.0,-9.746673583984375,0.0,2.722539100185955,1500.0,0.0,51.4595564,0.0,26.774898999999998,1418.0,0.0033980668522417545,0.5393363237380981,18537.72607421875,444.0,0.0,1000.0,5.0,0.0,0.0,1500.0,0.0,0.06440264939859076,0.0,1.0,-2.7909466,-0.0010471975511965976,-0.5625501275062561,-14.0,1.1287755966186523,1500.0,0.0,-3.0,0.0,197.0,1602.0,0.0,,,,,,,
7.299648000000001,0.0,0.0,1568.0,17.0,0.12245073169469833,0.0019198621771937625,1.84,0.010704622603952885,-0.033723779022693634,-0.03439563512802124,1491.0,-0.0022689280275926286,26.894536,5.0,-9.746133804321289,0.0,2.722539100185955,1500.0,0.0,51.459556899999995,0.0,26.855024999999998,1418.0,0.002437358954921365,0.5396952629089355,18537.72607421875,444.0,0.0,1000.0,5.0,0.0,0.0,1500.0,0.0,0.06440264939859076,0.0,1.0,-2.7909466999999997,-0.0010471975511965976,-0.5986771583557129,-14.0,1.1499608755111694,1500.0,0.0,-3.0,0.0008726646259971648,197.0,1602.0,-0.006935909390449524,,,,,,,
7.3997980000000005,0.0,0.0,1568.0,17.0,0.12245073169469833,0.0019198621771937625,1.84,0.00996769592165947,0.16417938470840454,-0.03280918300151825,1490.0,-0.0022689280275926286,26.994685999999998,5.0,-9.753009796142578,0.0,2.722539100185955,1501.0,0.0,51.459556899999995,0.0,26.975296999999998,1417.0,0.003775177523493767,0.5403462052345276,18567.228271484375,444.0,0.0,1000.0,5.0,0.0,0.0,1500.0,0.0,0.06440264939859076,0.0,1.0,-2.7909466999999997,-0.0010471975511965976,-0.5728721022605896,-14.0,1.150161623954773,1500.0,0.0,-3.0,0.00017453292519943296,197.0,1603.0,-0.006935909390449524,,,,,,,
7.499784000000002,0.0,0.0,1568.0,16.0,0.17811015248298645,0.0017453292519943296,1.9100000000000001,0.00977025181055069,-0.017591647803783417,-0.036874037235975266,1491.0,-0.0022689280275926286,27.094672,5.0,-9.741839408874512,0.0,2.722539100185955,1500.0,0.0,51.459557399999994,0.0,27.055056,1418.0,0.0028895384166389704,0.5408162474632263,18567.228271484375,444.0,0.0,1000.0,5.0,0.0,0.0,1500.0,0.0,0.06440264939859076,0.0,1.0,-2.7909469,-0.0010471975511965976,-0.5883551836013794,-14.0,1.153242826461792,1500.0,0.0,-3.0,0.0008726646259971648,197.0,1602.0,-0.02080773003399372,,,,,,,
7.599645000000002,0.0,0.0,1568.0,16.0,0.17811015248298645,0.0017453292519943296,1.9100000000000001,-0.018162785097956657,0.1474687159061432,-0.03264753520488739,1491.0,-0.0022689280275926286,27.194533,5.0,-9.735032081604004,0.0,2.722539100185955,1500.0,0.0,51.459557399999994,0.0,27.174882,1418.0,0.003737044520676136,0.4688304364681244,20942.93017578125,444.0,0.0,1000.0,5.0,0.0,0.0,1500.0,0.0,0.06440264939859076,0.0,1.0,-2.7909469,-0.0010471975511965976,-0.6399652361869812,-14.0,1.141086220741272,1500.0,0.0,-3.0,0.00017453292519943296,197.0,1602.0,-0.02080773003399372,,,,,,,
7.699791000000001,0.0,0.0,1568.0,16.0,0.22263768315315247,0.0017453292519943296,1.97,-0.03160775825381279,-0.0028186349663883448,-0.033903948962688446,1490.0,-0.0022689280275926286,27.294679,5.0,-9.749671936035156,0.0,2.722539100185955,1501.0,0.0,51.4595578,0.0,27.255049999999997,1417.0,0.0027906487230211496,0.4325084686279297,20942.93017578125,444.0,0.0,1000.0,5.0,0.0,0.0,1500.0,0.0,0.06440264939859076,0.0,1.0,-2.7909466999999997,-0.0010471975511965976,-0.5677111148834229,-14.0,1.1517008543014526,1500.0,0.0,-3.0,0.0006981317007977319,197.0,1603.0,-0.006935909390449524,,,,,,,
7.799798000000003,0.0,0.0,1568.0,16.0,0.22263768315315247,0.0017453292519943296,1.97,-0.05592802166938782,0.16113293170928955,-0.029192231595516205,1490.0,-0.0022689280275926286,27.394686,5.0,-9.747124671936035,0.0,2.722539100185955,1500.0,0.0,51.4595578,0.0,27.37492,1417.0,0.0026572311762720346,0.36384347081184387,20942.93017578125,444.0,0.0,1001.0,5.0,0.0,0.0,1500.0,0.0,0.06422811647339133,0.0,1.0,-2.7909466999999997,-0.0008726646259971648,-0.5419060587882996,-14.0,1.1544607877731323,1501.0,0.0,-3.0,0.0,197.0,1603.0,-0.006935909390449524,,,,,,,
7.899748000000002,0.0,0.0,1568.0,16.0,0.2782971262931824,0.0017453292519943296,2.04,-0.06788123399019241,0.01682642474770546,-0.030176183208823204,1491.0,-0.0022689280275926286,27.494636,5.0,-9.756555557250977,0.0,2.722364567260755,1500.0,0.0,51.4595583,0.0,27.454998,1417.0,0.0017751841805875301,0.3283182382583618,18567.228271484375,444.0,0.0,1000.0,5.0,0.0,0.0,1500.0,0.0,0.06422811647339133,0.0,1.0,-2.7909465,-0.0008726646259971648,-0.5522280931472778,-14.0,1.150804877281189,1500.0,0.0,-3.0,0.0005235987755982988,197.0,1603.0,0.006935909390449524,,,,,,,
8.000062,0.0,0.0,1568.0,16.0,0.2782971262931824,0.0017453292519943296,2.04,-0.08838406205177307,0.12754656374454498,-0.026485364884138107,1491.0,-0.0022689280275926286,27.594949999999997,5.0,-9.74720573425293,0.0,2.722364567260755,1500.0,0.0,51.4595583,0.0,27.575436999999997,1418.0,0.0014443456893786788,0.26689401268959045,18567.228271484375,444.0,0.0,1000.0,5.0,0.0,0.0,1500.0,0.0,0.06405358354819189,0.0,1.0,-2.7909465,-0.0008726646259971648,-0.5573890805244446,-14.0,1.1463558673858643,1500.0,0.0,-3.0,0.0,197.0,1602.0,0.006935909390449524,,,,,,,
8.099779000000002,0.0,0.0,1568.0,16.0,0.3228246569633484,0.0017453292519943296,2.14,-0.09348242729902267,0.011003843508660793,-0.027637680992484093,1491.0,-0.0022689280275926286,27.694667,5.0,-9.750557899475098,0.0,2.722364567260755,1500.0,0.0,51.459558699999995,0.0,27.615121,1418.0,0.0008551474893465638,0.25002214312553406,18567.228271484375,444.0,0.0,1000.0,5.0,0.0,0.0,1500.0,0.0,0.06405358354819189,0.0,1.0,-2.7909465,-0.0008726646259971648,-0.6502872705459595,-14.0,1.150282621383667,1500.0,0.0,-3.0,0.0,197.0,1602.0,0.006935909390449524,,,,,,,
8.199765000000003,0.0,0.0,1569.0,16.0,0.3228246569633484,0.0017453292519943296,2.14,-0.11638616025447845,0.14165756106376648,-0.023695625364780426,1490.0,-0.0020943951023931952,27.794653,5.0,-9.751785278320312,0.0,2.722364567260755,1500.0,0.0,51.459558699999995,0.0,27.774860999999998,1417.0,0.0007121333619579673,0.17528168857097626,19290.388427734375,444.0,0.0,1000.0,5.0,0.0,0.0,1500.0,0.0,0.06387905062299247,0.0,1.0,-2.7909465,-0.0008726646259971648,-0.5831941366195679,-14.0,1.1517438888549805,1500.0,0.0,-3.0,-0.00017453292519943296,197.0,1603.0,0.006935909390449524,,,,,,,
8.299768,0.0,0.0,1568.0,16.0,0.3562203049659729,0.0015707963267948964,2.2600000000000002,-0.12571991980075836,0.022103646770119667,-0.02341008000075817,1491.0,-0.0020943951023931952,27.894655999999998,5.0,-9.746334075927734,0.0,2.722364567260755,1500.0,0.0,51.459559,0.0,27.855082,1418.0,0.00030672538559883833,0.14361485838890076,18567.228271484375,444.0,0.0,1000.0,5.0,0.0,0.0,1500.0,0.0,0.06387905062299247,0.0,1.0,-2.7909465,-0.0008726646259971648,-0.6296432614326477,-14.0,1.1498165130615234,1500.0,0.0,-3.0,0.00017453292519943296,197.0,1602.0,0.006935909390449524,,,,,,,
8.399935000000003,0.0,0.0,1568.0,16.0,0.3562203049659729,0.0015707963267948964,2.2600000000000002,-0.14525675773620605,0.11671842634677887,-0.021685922518372536,1491.0,-0.0020943951023931952,27.994823,5.0,-9.752445220947266,0.0,2.722539100185955,1500.0,0.0,51.459559,0.0,27.975306999999997,1418.0,-1.3346405467018485e-05,0.08147749304771423,18567.228271484375,444.0,0.0,1000.0,5.0,0.0,0.0,1500.0,0.0,0.06387905062299247,0.0,1.0,-2.7909465,-0.0008726646259971648,-0.5470671057701111,-14.0,1.1409296989440918,1500.0,0.0,-3.0,-0.00017453292519943296,197.0,1602.0,0.006935909390449524,,,,,,,
8.499732000000002,0.0,0.0,1568.0,16.0,0.4007478356361389,0.0015707963267948964,2.36,-0.15452994406223297,0.04851265996694565,-0.0208633691072464,1491.0,-0.0020943951023931952,28.09462,5.0,-9.76239013671875,0.0,2.722539100185955,1500.0,0.0,51.459559399999996,0.0,28.055055,1418.0,-0.00030051867361180484,0.04790029302239418,18567.228271484375,444.0,0.0,1000.0,5.0,0.0,0.0,1500.0,0.0,0.06387905062299247,0.0,1.0,-2.7909463,-0.0008726646259971648,-0.5419060587882996,-14.0,1.1430988311767578,1500.0,0.0,-3.0,0.00017453292519943296,197.0,1602.0,0.02080773003399372,,,,,,,
8.599793000000002,0.0,0.0,1568.0,16.0,0.4007478356361389,0.0015707963267948964,2.36,-0.17507396638393402,0.10483887046575546,-0.019828563556075096,1491.0,-0.0020943951023931952,28.194681,5.0,-9.748920440673828,0.0,2.7228881660363533,1500.0,0.0,51.459559399999996,0.0,28.174887,1418.0,9.516166755929589e-05,-0.016614703461527824,18846.75830078125,444.0,0.0,1000.0,5.0,0.0,0.0,1500.0,0.0,0.06370451769779303,0.0,1.0,-2.7909463,-0.0008726646259971648,-0.6915753483772278,-14.0,1.1398836374282837,1500.0,0.0,-3.0,-0.00017453292519943296,197.0,1602.0,0.02080773003399372,,,,,,,
8.699843000000001,0.0,0.0,1568.0,16.0,0.4341434836387634,0.0015707963267948964,2.46,-0.184561088681221,0.040273040533065796,-0.019351458176970482,1491.0,-0.0020943951023931952,28.294731,5.0,-9.749246597290039,0.0,2.7228881660363533,1500.0,0.0,51.4595597,0.0,28.255043999999998,1418.0,0.00031030020909383893,-0.05203164368867874,18567.228271484375,444.0,0.0,1000.0,5.0,0.0,0.0,1500.0,0.0,0.06370451769779303,0.0,1.0,-2.7909460999999998,-0.0008726646259971648,-0.6812533736228943,-14.0,1.1472570896148682,1500.0,0.0,-3.0,0.0,197.0,1602.0,0.03467954695224762,,,,,,,
8.79963,0.0,0.0,1568.0,16.0,0.4341434836387634,0.0013962634015954637,2.46,-0.2050759643316269,0.1049240231513977,-0.018984075635671616,1491.0,-0.0020943951023931952,28.394517999999998,5.0,-9.75436019897461,0.0,2.723062698961553,1500.0,0.0,51.4595597,0.0,28.374917999999997,1418.0,-0.00044042017543688416,-0.11903892457485199,18567.228271484375,444.0,0.0,1000.0,5.0,0.0,0.0,1500.0,0.0,0.06370451769779303,0.0,1.0,-2.7909460999999998,-0.0008726646259971648,-0.6451262831687927,-14.0,1.1399078369140625,1500.0,0.0,-3.0,-0.00034906585039886593,197.0,1602.0,0.03467954695224762,,,,,,,
8.899807000000003,0.0,0.0,1568.0,16.0,0.4675391614437103,0.0013962634015954637,2.56,-0.21561799943447113,0.057309456169605255,-0.018412088975310326,1491.0,-0.0020943951023931952,28.494695,5.0,-9.747447967529297,0.0,2.723062698961553,1500.0,0.0,51.459559999999996,0.0,28.455047999999998,1418.0,-8.725396037334576e-05,-0.15632827579975128,18537.72607421875,444.0,0.0,1000.0,5.0,0.0,0.0,1500.0,0.0,0.06370451769779303,0.0,1.0,-2.7909459,-0.0008726646259971648,-0.6657702922821045,-14.0,1.1467126607894897,1500.0,0.0,-3.0,0.0,197.0,1602.0,0.04855136573314667,,,,,,,
8.999870000000001,0.0,0.0,1568.0,16.0,0.4675391614437103,0.0013962634015954637,2.56,-0.23675699532032013,0.09903962165117264,-0.01773703098297119,1490.0,-0.0020943951023931952,28.594758,5.0,-9.765777587890625,0.0,2.7232372318867526,1501.0,0.0,51.459559999999996,0.0,28.575433,1417.0,-0.0006009681965224445,-0.2258680760860443,18537.72607421875,444.0,0.0,1000.0,5.0,0.0,0.0,1500.0,0.0,0.06370451769779303,0.0,1.0,-2.7909459,-0.0008726646259971648,-0.6348042488098145,-14.0,1.1514264345169067,1500.0,0.0,-3.0,-0.00034906585039886593,197.0,1603.0,0.04855136573314667,,,,,,,
9.099745000000002,0.0,0.0,1569.0,17.0,0.48980292677879333,0.0013962634015954637,2.65,-0.2471301406621933,0.06479699909687042,-0.017221378162503242,1490.0,-0.0020943951023931952,28.694633,5.0,-9.74857234954834,0.0,2.7232372318867526,1500.0,0.0,51.4595602,0.0,28.655044,1417.0,-0.0006097173318266869,-0.26507261395454407,18537.72607421875,444.0,0.0,1000.0,5.0,0.0,0.0,1500.0,0.0,0.06370451769779303,0.0,1.0,-2.7909458,-0.0008726646259971648,-0.6451262831687927,-14.0,1.1432849168777466,1500.0,0.0,-3.0,0.0,197.0,1603.0,0.05548727512359619,,,,,,,
9.199967000000001,0.0,0.0,1568.0,17.0,0.48980292677879333,0.0013962634015954637,2.65,-0.26798543334007263,0.09780855476856232,-0.018140243366360664,1491.0,-0.0020943951023931952,28.794855,5.0,-9.743419647216797,0.0,2.7234117648119516,1500.0,0.0,51.4595602,0.0,28.774898999999998,1417.0,-0.0007329008658416569,-0.3362210690975189,19158.3984375,444.0,0.0,1000.0,5.0,0.0,0.0,1500.0,0.0,0.06370451769779303,0.0,1.0,-2.7909458,-0.0008726646259971648,-0.5573890805244446,-14.0,1.1518608331680298,1500.0,0.0,-3.0,-0.00034906585039886593,197.0,1603.0,0.05548727512359619,,,,,,,
9.299775,0.0,0.0,1568.0,16.0,0.512066662311554,0.0013962634015954637,2.75,-0.2780889570713043,0.05502917990088463,-0.017606157809495926,1490.0,-0.0020943951023931952,28.894662999999998,5.0,-9.742803573608398,0.0,2.7234117648119516,1500.0,0.0,51.4595604,0.0,28.855100999999998,1417.0,-0.00045190448872745037,-0.37681296467781067,19158.3984375,444.0,0.0,1000.0,5.0,0.0,0.0,1501.0,0.0,0.06370451769779303,0.0,1.0,-2.7909457,-0.0008726646259971648,-0.6967363953590393,-14.0,1.147420883178711,1500.0,0.0,-3.0,0.0,197.0,1603.0,0.062423184514045715,,,,,,,
9.399769000000003,0.0,0.0,1569.0,16.0,0.512066662311554,0.0013962634015954637,2.75,-0.29855209589004517,0.06694142520427704,-0.01781519688665867,1490.0,-0.0020943951023931952,28.994657,5.0,-9.756702423095703,0.0,2.7234117648119516,1500.0,0.0,51.4595604,0.0,28.975203999999998,1417.0,-0.0008033787598833442,-0.4501124918460846,20973.259521484375,444.0,0.0,1000.0,5.0,0.0,0.0,1500.0,0.0,0.06370451769779303,0.0,1.0,-2.7909457,-0.0008726646259971648,-0.686414361000061,-14.0,1.1460044384002686,1501.0,0.0,-3.0,-0.00034906585039886593,197.0,1603.0,0.062423184514045715,,,,,,,
9.499798000000002,0.0,0.0,1568.0,16.0,0.5231985449790955,0.0013962634015954637,2.77,-0.30877599120140076,0.06616783887147903,-0.01690613105893135,1491.0,-0.0020943951023931952,29.094686,5.0,-9.751472473144531,0.0,2.7234117648119516,1500.0,0.0,51.459560499999995,0.0,29.055032999999998,1417.0,-0.0005050042527727783,-0.4922383725643158,19158.3984375,444.0,0.0,1000.0,5.0,0.0,0.0,1500.0,0.0,0.0635299847725936,0.0,1.0,-2.7909455,-0.0008726646259971648,-0.6348042488098145,-14.0,1.1414304971694946,1500.0,0.0,-3.0,-0.00017453292519943296,197.0,1603.0,0.07629500329494476,,,,,,,
9.600016,0.0,0.0,1568.0,16.0,0.5231985449790955,0.0013962634015954637,2.77,-0.3263571858406067,0.024608075618743896,-0.016417795792222023,1491.0,-0.0020943951023931952,29.194903999999998,5.0,-9.70584487915039,0.0,2.7234117648119516,1500.0,0.0,51.459560499999995,0.0,29.174892999999997,1418.0,-0.00048371334560215473,-0.5606920123100281,19158.3984375,444.0,0.0,1000.0,5.0,0.0,0.0,1500.0,0.0,0.0635299847725936,0.0,1.0,-2.7909455,-0.0008726646259971648,-0.7431854605674744,-14.0,1.172792911529541,1500.0,0.0,-3.0,-0.0005235987755982988,197.0,1602.0,0.07629500329494476,,,,,,,
9.699629000000002,0.0,0.0,1568.0,16.0,0.5231985449790955,0.0013962634015954637,2.79,-0.3362521529197693,0.23778721690177917,-0.011427342891693115,1491.0,-0.0020943951023931952,29.294517,5.0,-9.672316551208496,0.0,2.723760830662351,1500.0,0.0,51.459560499999995,0.0,29.255060999999998,1418.0,8.670194074511528e-05,-0.6009976863861084,19158.3984375,444.0,0.0,1000.0,5.0,0.0,0.0,1500.0,0.0,0.0635299847725936,0.0,1.0,-2.790945,-0.0008726646259971648,-0.6089991927146912,-14.0,1.148254156112671,1500.0,0.0,-3.0,-0.0010471975511965976,197.0,1602.0,0.11097455024719238,,,,,,,
9.800033000000003,0.0,0.0,1568.0,16.0,0.5231985449790955,0.0013962634015954637,2.79,-0.3485203981399536,-0.23134654760360718,-0.025599921122193336,1491.0,-0.0020943951023931952,29.394921,5.0,-9.842033386230469,0.0,2.7234117648119516,1500.0,0.0,51.459560499999995,0.0,29.374927,1418.0,-0.007677650079131126,-0.6621994376182556,20992.12841796875,444.0,0.0,1000.0,5.0,0.0,0.0,1500.0,0.0,0.0635299847725936,0.0,1.0,-2.790945,-0.0008726646259971648,-0.6657702922821045,-14.0,1.2565747499465942,1500.0,0.0,-3.0,-0.0010471975511965976,197.0,1602.0,0.11097455024719238,,,,,,,
9.899784,0.0,0.0,1568.0,15.0,0.5454623699188232,0.0012217304763960308,2.82,-0.35742780566215515,0.2670174837112427,0.0060951970517635345,1491.0,-0.0020943951023931952,29.494671999999998,5.0,-10.03606128692627,0.0,2.724284429437949,1500.0,0.0,51.4595607,0.0,29.455060999999997,1418.0,0.0030512840021401644,-0.6991636157035828,19158.3984375,444.0,0.0,1000.0,5.0,0.0,0.0,1500.0,0.0,0.06335545184739416,0.0,1.0,-2.7909447,-0.0008726646259971648,-0.6244822144508362,-14.0,0.6596071720123291,1500.0,0.0,-3.0,-0.0027925268031909274,197.0,1602.0,0.13178227841854095,,,,,,,
9.999727,0.0,0.0,1568.0,15.0,0.5454623699188232,0.0012217304763960308,2.82,-0.460469126701355,-0.7287208437919617,-0.025097791105508804,1491.0,-0.0020943951023931952,29.594614999999997,5.0,-11.562397956848145,0.0,2.723062698961553,1500.0,0.0,51.4595607,0.0,29.575236,1418.0,0.028147133067250252,-0.7568960785865784,20992.12841796875,444.0,0.0,1000.0,5.0,0.0,0.0,1500.0,0.0,0.06544984694978735,0.0,1.0,-2.7909447,-0.0008726646259971648,-0.670931339263916,-14.0,1.0292035341262817,1500.0,0.0,-3.0,-0.00471238898038469,197.0,1602.0,0.13178227841854095,,,,,,,
10.099792,0.0,0.0,1568.0,15.0,0.5454623699188232,0.0012217304763960308,2.84,-0.6253999471664429,0.0756412073969841,0.007972083985805511,1491.0,-0.0020943951023931952,29.694679999999998,5.0,-12.296699523925781,0.0,2.7253316269891457,1500.0,0.0,51.4595607,0.0,29.655085999999997,1418.0,0.03658192232251167,-0.8045961856842041,19158.3984375,444.0,0.0,1000.0,5.0,0.0,0.0,1500.0,0.0,0.06265732014659643,0.0,1.0,-2.7909444999999997,-0.0008726646259971648,-0.6451262831687927,-14.0,1.1427278518676758,1500.0,0.0,-3.0,-0.0017453292519943296,197.0,1602.0,0.14565409719944,,,,,,,
10.199828,0.0,0.0,1568.0,15.0,0.5454623699188232,0.0012217304763960308,2.84,-0.9909806847572327,0.3756113350391388,-0.03544612601399422,1491.0,-0.0020943951023931952,29.794715999999998,5.0,-12.838888168334961,0.0,2.73021854889473,1500.0,0.0,51.4595607,0.0,29.774903,1418.0,0.009713615290820599,-0.9006364941596985,19590.00927734375,444.0,0.0,1000.0,5.0,0.0,0.0,1500.0,0.0,0.045727626402251434,0.0,1.0,-2.7909444999999997,-0.0008726646259971648,-0.4799739420413971,-14.0,1.7480531930923462,1500.0,0.0,-3.0,0.012391837689159739,197.0,1602.0,0.14565409719944,,,,,,,
10.299741000000001,0.0,0.0,1569.0,16.0,0.5343304872512817,0.0012217304763960308,2.95,-1.1633564233779907,0.16881456971168518,-0.046414799988269806,1490.0,-0.0020943951023931952,29.894629,5.0,-12.071869850158691,0.0,2.7298694830443306,1500.0,0.0,51.459560599999996,0.0,29.855076,1417.0,-0.05251990258693695,-0.9884582757949829,19158.3984375,444.0,0.0,1000.0,5.0,0.0,0.0,1500.0,0.0,0.03647738136668149,0.0,1.0,-2.7909447999999997,-0.0008726646259971648,-0.6089991927146912,-14.0,1.928229570388794,1500.0,0.0,-3.0,0.031066860685499065,197.0,1603.0,0.12484636902809143,,,,,,,
10.399776000000003,0.0,0.0,1569.0,16.0,0.5343304872512817,0.0012217304763960308,2.95,-1.468630313873291,0.4036136567592621,-0.06570267677307129,1490.0,-0.0020943951023931952,29.994664,5.0,-11.935632705688477,0.0,2.721840968485157,1500.0,0.0,51.459560599999996,0.0,29.975295,1417.0,-0.17670851945877075,-1.1434847116470337,19158.3984375,444.0,0.0,1000.0,5.0,0.0,0.0,1500.0,0.0,0.028972465583105872,0.0,1.0,-2.7909447999999997,-0.0008726646259971648,-0.39223676919937134,-14.0,2.38578462600708,1500.0,0.0,-3.0,0.03665191429188092,197.0,1603.0,0.12484636902809143,,,,,,,
10.499739000000002,0.0,0.0,1568.0,17.0,0.5009347796440125,0.0012217304763960308,3.12,-1.5848699808120728,-0.4046400487422943,-0.05389552190899849,1491.0,-0.0020943951023931952,30.094627,5.0,-9.461541175842285,0.0,2.71171805882359,1500.0,0.0,51.4595603,0.0,30.055082,1418.0,-0.3114120364189148,-1.2648175954818726,19158.3984375,444.0,0.0,1000.0,5.0,0.0,0.0,1500.0,0.0,0.03159045946109736,0.0,1.0,-2.7909455999999997,-0.0008726646259971648,-0.28901657462120056,-14.0,2.611752986907959,1500.0,0.0,-3.0,0.04293509959906051,197.0,1602.0,0.06935909390449524,,,,,,,
10.599743,0.0,0.0,1568.0,17.0,0.5009347796440125,0.0012217304763960308,3.12,-1.4775251150131226,-0.835381269454956,0.054195087403059006,1490.0,-0.0020943951023931952,30.194630999999998,5.0,-7.925514221191406,0.0,2.7014206162368235,1500.0,0.0,51.4595603,0.0,30.174698,1417.0,-0.48804908990859985,-1.4464561939239502,21027.861572265625,444.0,0.0,1000.0,5.0,0.0,0.0,1501.0,0.0,0.05358160803622592,0.0,1.0,-2.7909455999999997,-0.0008726646259971648,-0.14966928958892822,-14.0,2.4740145206451416,1500.0,0.0,-3.0,0.047472955654245766,197.0,1603.0,0.06935909390449524,,,,,,,
10.699820000000003,0.0,0.0,1568.0,16.0,0.44527536630630493,0.0012217304763960308,3.36,-1.3307360410690308,-0.1645948737859726,0.13422630727291107,1491.0,-0.0020943951023931952,30.294708,5.0,-7.306910514831543,0.0,2.700547951610826,1500.0,0.0,51.4595598,0.0,30.254991999999998,1417.0,-0.5844306945800781,-1.5557692050933838,20987.406494140625,444.0,0.0,1000.0,5.0,0.0,0.0,1500.0,0.0,0.07522369076095561,0.0,1.0,-2.7909462,-0.0008726646259971648,-0.11354222148656845,-14.0,2.976924419403076,1500.0,0.0,-3.0,0.04590215932745086,197.0,1603.0,0.027743637561798096,,,,,,,
10.799743000000003,0.0,0.0,1568.0,16.0,0.44527536630630493,0.0012217304763960308,3.36,-1.0700960159301758,-0.5806528925895691,0.21919625997543335,1491.0,-0.0019198621771937625,30.394631,5.0,-7.516201019287109,0.0,2.7031659454888177,1500.0,0.0,51.4595598,0.0,30.374751999999997,1417.0,-0.7525826692581177,-1.6912527084350586,20987.406494140625,444.0,0.0,1000.0,5.0,0.0,0.0,1500.0,0.0,0.10838494654884787,0.0,1.0,-2.7909462,-0.0008726646259971648,-0.09805919229984283,-14.0,2.0012154579162598,1500.0,0.0,-3.0,0.0317649923862968,197.0,1603.0,0.027743637561798096,,,,,,,
10.899636000000001,0.0,0.0,1568.0,17.0,0.3562203049659729,0.0012217304763960308,3.63,-0.9179960489273071,-0.22338828444480896,0.29450559616088867,1491.0,-0.0019198621771937625,30.494524,5.0,-8.219538688659668,0.0,2.7082274003196014,1500.0,0.0,51.459559,0.0,30.454984999999997,1418.0,-0.8100091814994812,-1.7657699584960938,19158.3984375,444.0,0.0,1000.0,5.0,0.0,0.0,1500.0,0.0,0.136659280431156,0.0,1.0,-2.7909452999999997,-0.0008726646259971648,-0.010322020389139652,-14.0,3.3679983615875244,1500.0,0.0,-3.0,0.012391837689159739,197.0,1602.0,0.09016682952642441,,,,,,,
10.999782,0.0,0.0,1568.0,17.0,0.3562203049659729,0.0012217304763960308,3.63,-0.8088908195495605,0.7486132383346558,0.336633563041687,1491.0,-0.0019198621771937625,30.594669999999997,5.0,-9.110356330871582,0.0,2.7333601415483195,1500.0,0.0,51.459559,0.0,30.575439999999997,1418.0,-0.9624081254005432,-1.8567779064178467,19158.3984375,444.0,0.0,1000.0,5.0,0.0,0.0,1500.0,0.0,0.17226399717184035,0.0,1.0,-2.7909452999999997,-0.0008726646259971648,0.04644909128546715,-14.0,2.222712755203247,1500.0,0.0,-3.0,-0.0486946861306418,197.0,1602.0,0.09016682952642441,,,,,,,
11.099738000000002,0.0,0.0,1568.0,17.0,0.24490146338939667,0.0012217304763960308,3.7800000000000002,-0.7780012488365173,1.2998578548431396,0.27093029022216797,1491.0,-0.0019198621771937625,30.694626,5.0,-8.408211708068848,0.0,2.744181182910684,1500.0,0.0,51.459557999999994,0.0,30.655054,1418.0,-0.9649215340614319,-1.914225697517395,18966.334228515625,444.0,0.0,1000.0,5.0,0.0,0.0,1500.0,0.0,0.1864011641129944,0.0,1.0,-2.7909436999999997,-0.0008726646259971648,0.08515667170286179,-14.0,1.7193416357040405,1500.0,0.0,-3.0,-0.08185594191853406,197.0,1602.0,0.2011413723230362,,,,,,,
11.199598000000002,0.0,0.0,1568.0,17.0,0.24490146338939667,0.0012217304763960308,3.7800000000000002,-0.6152348518371582,0.8208884000778198,0.24429894983768463,1491.0,-0.0019198621771937625,30.794486,5.0,-7.731258392333984,0.0,2.7461010450878782,1500.0,0.0,51.459557999999994,0.0,30.774894,1418.0,-0.9430339932441711,-1.9837740659713745,19158.3984375,444.0,0.0,1000.0,5.0,0.0,0.0,1500.0,0.0,0.2001892652037496,0.0,1.0,-2.7909436999999997,-0.0010471975511965976,0.11612273007631302,-14.0,2.198932647705078,1500.0,0.0,-3.0,-0.1075122819228507,197.0,1602.0,0.2011413723230362,,,,,,,
11.299724000000001,0.0,0.0,1568.0,17.0,0.11131884157657623,0.0012217304763960308,3.84,-0.47777071595191956,0.9235871434211731,0.26368847489356995,1491.0,-0.0019198621771937625,30.894612,5.0,-7.954960823059082,0.0,2.745926512162679,1500.0,0.0,51.459556799999994,0.0,30.855082999999997,1418.0,-0.9838694334030151,-2.019315719604492,19158.3984375,444.0,0.0,1000.0,5.0,0.0,0.0,1500.0,0.0,0.21345376751890652,0.0,1.0,-2.7909424,-0.0010471975511965976,0.08257616311311722,-14.0,3.5694122314453125,1500.0,0.0,-3.0,-0.12217304763960307,197.0,1602.0,0.29130819439888,,,,,,,
11.399627000000002,0.0,0.0,1568.0,17.0,0.11131884157657623,0.0013962634015954637,3.84,-0.36354508996009827,1.883130431175232,0.3211740553379059,1491.0,-0.0019198621771937625,30.994515,5.0,-8.88644027709961,0.0,2.7356290695759125,1500.0,0.0,51.459556799999994,0.0,30.975253,1418.0,-1.07529878616333,-2.045785903930664,19158.3984375,444.0,0.0,1000.0,5.0,0.0,0.0,1500.0,0.0,0.2501056818107874,0.0,1.0,-2.7909424,-0.0012217304763960308,0.20902091264724731,-14.0,4.510623455047607,1500.0,0.0,-3.0,-0.1467821900927231,197.0,1602.0,0.29130819439888,,,,,,,
11.499645000000001,0.0,0.0,1569.0,17.0,-0.04452753812074661,0.0013962634015954637,3.95,-0.43505173921585083,0.7184313535690308,0.3326992988586426,1490.0,-0.0019198621771937625,31.094533,5.0,-10.908721923828125,0.0,2.7131143222251857,1500.0,0.0,51.4595554,0.0,31.054993,1417.0,-1.2026336193084717,-2.0655322074890137,19158.3984375,444.0,0.0,1000.0,5.0,0.0,0.0,1500.0,0.0,0.28483773392547457,0.0,1.0,-2.7909414999999997,-0.0012217304763960308,0.1341862678527832,-14.0,5.677051067352295,1501.0,0.0,-3.0,-0.15847589608108512,197.0,1603.0,0.3537313938140869,,,,,,,
11.599739,0.0,0.0,1569.0,17.0,-0.04452753812074661,0.0015707963267948964,3.95,-0.7687774896621704,0.7960751056671143,0.5060139298439026,1490.0,-0.0019198621771937625,31.194626999999997,5.0,-11.327284812927246,0.0,2.659707247114159,1500.0,0.0,51.4595554,0.0,31.174743,1417.0,-1.1627647876739502,-2.111884593963623,20915.813720703125,444.0,0.0,1000.0,5.0,0.0,0.0,1500.0,0.0,0.30578168494940655,0.0,1.0,-2.7909414999999997,-0.0013962634015954637,0.167732834815979,-14.0,2.6205825805664062,1500.0,0.0,-3.0,-0.18029251173101424,197.0,1603.0,0.3537313938140869,,,,,,,
11.699760000000001,0.0,0.0,1568.0,17.0,-0.22263768315315247,0.0015707963267948964,3.95,-0.7676994204521179,-0.37630516290664673,0.5646921992301941,1491.0,-0.0019198621771937625,31.294648,5.0,-7.9956560134887695,0.0,2.6115361597591153,1500.0,0.0,51.459553799999995,0.0,31.254970999999998,1418.0,-1.0307140350341797,-2.163020133972168,19158.3984375,444.0,0.0,1000.0,5.0,0.0,0.0,1500.0,0.0,0.29513517651224114,0.0,1.0,-2.7909398999999997,-0.0013962634015954637,0.405139297246933,-14.0,2.924367904663086,1500.0,0.0,-3.0,-0.1741838593490341,197.0,1602.0,0.4647059440612793,,,,,,,
11.799616,0.0,0.0,1568.0,17.0,-0.22263768315315247,0.0017453292519943296,3.95,-0.5397475957870483,0.40220460295677185,0.6995618343353271,1490.0,-0.0019198621771937625,31.394503999999998,5.0,-7.029575824737549,0.0,2.543817384781735,1501.0,0.0,51.459553799999995,0.0,31.374858999999997,1417.0,-0.9292512536048889,-2.2154581546783447,19158.3984375,444.0,0.0,1000.0,5.0,0.0,0.0,1500.0,0.0,0.2919935838586513,0.0,1.0,-2.7909398999999997,-0.0015707963267948964,0.167732834815979,-14.0,2.981175184249878,1500.0,0.0,-3.0,-0.15969762655748115,197.0,1603.0,0.4647059440612793,,,,,,,
11.899752,0.0,0.0,1569.0,17.0,-0.44527536630630493,0.0017453292519943296,4.0600000000000005,-0.39545485377311707,1.3693764209747314,0.7519572973251343,1490.0,-0.0019198621771937625,31.494639999999997,5.0,-8.949088096618652,0.0,2.504896542462262,1500.0,0.0,51.4595518,0.0,31.454991,1417.0,-0.9181616306304932,-2.23874568939209,18966.334228515625,444.0,0.0,1000.0,5.0,0.0,0.0,1500.0,0.0,0.30700341542580256,0.0,1.0,-2.7909382,-0.0015707963267948964,0.059351615607738495,-14.0,4.184032440185547,1500.0,0.0,-3.0,-0.15655603390389136,197.0,1603.0,0.58261638879776,,,,,,,
11.999829000000002,0.0,0.0,1568.0,17.0,-0.44527536630630493,0.0017453292519943296,4.0600000000000005,-0.5072924494743347,1.5436242818832397,0.794675886631012,1491.0,-0.0019198621771937625,31.594717,5.0,-10.50009536743164,0.0,2.4539329283040274,1500.0,0.0,51.4595518,0.0,31.575114,1417.0,-0.882996141910553,-2.2615199089050293,18966.334228515625,444.0,0.0,1000.0,5.0,0.0,0.0,1500.0,0.0,0.3485422516232676,0.0,1.0,-2.7909382,-0.0019198621771937625,0.09805919229984283,-14.0,4.443352222442627,1500.0,0.0,-3.0,-0.1806415775814131,197.0,1603.0,0.58261638879776,,,,,,,
12.099609000000001,0.0,0.0,1568.0,17.0,-0.6345174312591553,0.0017453292519943296,4.11,-0.6444321870803833,1.8016570806503296,0.8031529784202576,1491.0,-0.0019198621771937625,31.694497,5.0,-10.046149253845215,0.0,2.432465378504497,1500.0,0.0,51.459550099999994,0.0,31.655085,1418.0,-0.8436646461486816,-2.2944936752319336,18966.334228515625,444.0,0.0,1000.0,5.0,0.0,0.0,1500.0,0.0,0.3778637830567724,0.0,1.0,-2.7909357,-0.0019198621771937625,0.3380461633205414,-14.0,4.718879699707031,1500.0,0.0,-3.0,-0.2183406894244906,197.0,1602.0,0.7560141682624817,,,,,,,
12.199778000000002,0.0,0.0,1568.0,17.0,-0.6345174312591553,0.0017453292519943296,4.11,-0.7444040775299072,2.229029655456543,0.7552834153175354,1491.0,-0.0019198621771937625,31.794666,5.0,-8.657477378845215,0.0,2.421120738366534,1500.0,0.0,51.459550099999994,0.0,31.774845,1418.0,-0.7017521262168884,-2.3512299060821533,19156.650146484375,444.0,0.0,1000.0,5.0,0.0,0.0,1500.0,0.0,0.40910517666747087,0.0,1.0,-2.7909357,-0.0020943951023931952,0.2761140465736389,-14.0,3.3372533321380615,1500.0,0.0,-3.0,-0.2768092193663007,197.0,1602.0,0.7560141682624817,,,,,,,
12.299648000000001,0.0,0.0,1568.0,17.0,-0.8237594366073608,0.0017453292519943296,4.11,-0.6614056825637817,2.4190051555633545,0.7172178030014038,1491.0,-0.0019198621771937625,31.894536,5.0,-5.42888069152832,0.0,2.411870493330964,1500.0,0.0,51.459548399999996,0.0,31.855009,1417.0,-0.6394213438034058,-2.3946053981781006,18966.334228515625,444.0,0.0,1000.0,5.0,0.0,0.0,1500.0,0.0,0.4134684997974567,0.0,1.0,-2.7909327999999998,-0.0020943951023931952,0.3612707257270813,-14.0,3.0730509757995605,1500.0,0.0,-3.0,-0.28955012290585924,197.0,1603.0,0.9571554660797119,,,,,,,
12.399602000000002,0.0,0.0,1568.0,17.0,-0.8237594366073608,0.0017453292519943296,4.11,-0.290706992149353,1.7169520854949951,0.6831997036933899,1491.0,-0.0019198621771937625,31.99449,5.0,-6.019306182861328,0.0,2.391973739858229,1500.0,0.0,51.459548399999996,0.0,31.975285,1418.0,-0.6603748202323914,-2.41868257522583,18966.334228515625,444.0,0.0,1000.0,5.0,0.0,0.0,1500.0,0.0,0.4300491276914028,0.0,1.0,-2.7909327999999998,-0.0022689280275926286,0.21676242351531982,-14.0,4.712157726287842,1500.0,0.0,-3.0,-0.2853613327010729,197.0,1602.0,0.9571554660797119,,,,,,,
12.499642000000001,0.0,0.0,1568.0,17.0,-1.001869559288025,0.0017453292519943296,4.15,-0.19563338160514832,2.643191337585449,0.7427464723587036,1491.0,-0.0019198621771937625,32.09453,5.0,-8.157880783081055,0.0,2.368760860806704,1500.0,0.0,51.4595468,0.0,32.05499,1418.0,-0.7220756411552429,-2.421349287033081,18529.95703125,444.0,0.0,1000.0,5.0,0.0,0.0,1500.0,0.0,0.45710173109731495,0.0,1.0,-2.7909300999999997,-0.0022689280275926286,0.14450828731060028,-14.0,6.433495044708252,1500.0,0.0,-3.0,-0.27838001569309556,197.0,1602.0,1.1444251537322998,,,,,,,
12.599733,0.0,0.0,1568.0,17.0,-1.001869559288025,0.0019198621771937625,4.15,-0.4142377972602844,1.0302183628082275,0.7866055369377136,1491.0,-0.0019198621771937625,32.194621,5.0,-11.001729965209961,0.0,2.314830186920079,1500.0,0.0,51.4595468,0.0,32.174848,1418.0,-0.7318330407142639,-2.4158828258514404,18529.95703125,444.0,0.0,1000.0,5.0,0.0,0.0,1500.0,0.0,0.5037020221255635,0.0,1.0,-2.7909300999999997,-0.002617993877991494,0.23740646243095398,-14.0,7.147469997406006,1500.0,0.0,-3.0,-0.25743606466916363,197.0,1602.0,1.1444251537322998,,,,,,,
12.699562999999998,0.0,0.0,1568.0,17.0,-1.2467710971832275,0.0019198621771937625,4.17,-0.6750364899635315,0.7604750394821167,0.8792902827262878,1490.0,-0.0019198621771937625,32.294450999999995,5.0,-9.596723556518555,0.0,2.269626159293426,1500.0,0.0,51.4595446,0.0,32.254996,1417.0,-0.5869194865226746,-2.4415948390960693,18394.026123046875,444.0,0.0,1000.0,5.0,0.0,0.0,1501.0,0.0,0.5143485305627289,0.0,1.0,-2.790928,-0.002617993877991494,0.28901657462120056,-14.0,4.561445236206055,1500.0,0.0,-3.0,-0.2462659574563999,197.0,1603.0,1.290079116821289,,,,,,,
12.799745000000001,0.0,0.0,1569.0,17.0,-1.2467710971832275,0.0020943951023931952,4.17,-0.6538550853729248,1.3521268367767334,0.8681648373603821,1490.0,-0.0020943951023931952,32.394633,5.0,-6.708780288696289,0.0,2.2031291147924423,1500.0,0.0,51.4595446,0.0,32.37488,1417.0,-0.3412918746471405,-2.485952377319336,18529.95703125,444.0,0.0,1000.0,5.0,0.0,0.0,1500.0,0.0,0.49113565151120436,0.0,1.0,-2.790928,-0.0027925268031909274,0.4309443533420563,-14.0,3.1152591705322266,1500.0,0.0,-3.0,-0.22130774915288098,197.0,1603.0,1.290079116821289,,,,,,,
12.899754999999999,0.0,0.0,1568.0,17.0,-1.4916725158691406,0.0020943951023931952,4.2,-0.4067029356956482,0.9211900234222412,0.8177050352096558,1491.0,-0.0020943951023931952,32.494642999999996,5.0,-6.180025100708008,0.0,2.1603685481185813,1500.0,0.0,51.4595424,0.0,32.455006,1418.0,-0.27624133229255676,-2.510382890701294,18529.95703125,444.0,0.0,1000.0,5.0,0.0,0.0,1500.0,0.0,0.4757767540936543,0.0,1.0,-2.7909251,-0.0027925268031909274,0.24514798820018768,-14.0,3.8254261016845703,1500.0,0.0,-3.0,-0.21031217486531673,197.0,1602.0,1.491220474243164,,,,,,,
12.999636000000002,0.0,0.0,1568.0,17.0,-1.4916725158691406,0.0019198621771937625,4.2,-0.23632879555225372,1.9007965326309204,0.8480420112609863,1491.0,-0.0020943951023931952,32.594524,5.0,-9.002456665039062,0.0,2.117957047295119,1500.0,0.0,51.4595424,0.0,32.575452,1418.0,-0.2218051701784134,-2.5047993659973145,21009.4541015625,444.0,0.0,1000.0,5.0,0.0,0.0,1500.0,0.0,0.4794419455228423,0.0,1.0,-2.7909251,-0.0029670597283903604,0.0928981825709343,-14.0,5.653871536254883,1500.0,0.0,-3.0,-0.2340486526924396,197.0,1602.0,1.491220474243164,,,,,,,
13.099752000000002,0.0,0.0,1569.0,17.0,-1.6920464038848877,0.0019198621771937625,4.2700000000000005,-0.3858298659324646,2.9958038330078125,0.8682088255882263,1490.0,-0.0020943951023931952,32.69464,5.0,-9.81312370300293,0.0,2.108008670558751,1500.0,0.0,51.4595406,0.0,32.654982,1417.0,-0.18395555019378662,-2.5102057456970215,20998.95068359375,444.0,0.0,1000.0,5.0,0.0,0.0,1500.0,0.0,0.48275807110163155,0.0,1.0,-2.7909219999999997,-0.0029670597283903604,0.21160142123699188,-14.0,6.878270626068115,1500.0,0.0,-3.0,-0.25987952562195565,197.0,1603.0,1.7062337398529053,,,,,,,
13.199796,0.0,0.0,1569.0,17.0,-1.6920464038848877,0.0017453292519943296,4.2700000000000005,-0.6802564859390259,4.544793605804443,0.822880744934082,1490.0,-0.0022689280275926286,32.794684,5.0,-9.719743728637695,0.0,2.115862652192726,1500.0,0.0,51.4595406,0.0,32.774875,1417.0,-0.14408265054225922,-2.5350513458251953,20998.95068359375,444.0,0.0,1000.0,5.0,0.0,0.0,1500.0,0.0,0.46443211395569106,0.0,1.0,-2.7909219999999997,-0.003141592653589793,0.29159706830978394,-14.0,3.554389476776123,1500.0,0.0,-3.0,-0.30246555937061737,197.0,1603.0,1.7062337398529053,,,,,,,
13.299744000000004,0.0,0.0,1568.0,17.0,-1.8367609977722168,0.0017453292519943296,4.29,-0.718658983707428,2.2190136909484863,0.655267596244812,1491.0,-0.0022689280275926286,32.894632,5.0,-7.837563514709473,0.0,2.1266836935550906,1500.0,0.0,51.459539299999996,0.0,32.855005999999996,1418.0,-0.0655566155910492,-2.5733044147491455,18615.783935546875,444.0,0.0,1000.0,5.0,0.0,0.0,1500.0,0.0,0.4436626958569586,0.0,1.0,-2.7909186999999998,-0.003141592653589793,0.25547000765800476,-14.0,3.438873767852783,1500.0,0.0,-3.0,-0.29670597283903605,197.0,1602.0,1.9351187944412231,,,,,,,
13.399731000000003,0.0,0.0,1568.0,17.0,-1.8367609977722168,0.0017453292519943296,4.29,-0.49428829550743103,1.7913308143615723,0.5935732126235962,1491.0,-0.0022689280275926286,32.994619,5.0,-5.595664978027344,0.0,2.1491984409058174,1500.0,0.0,51.459539299999996,0.0,32.975107,1418.0,-0.012142239138484001,-2.6113193035125732,19011.406982421875,444.0,0.0,1000.0,5.0,0.0,0.0,1500.0,0.0,0.4295255289158045,0.0,1.0,-2.7909186999999998,-0.0033161255787892262,0.19095738232135773,-14.0,3.663499593734741,1500.0,0.0,-3.0,-0.27454029133870805,197.0,1602.0,1.9351187944412231,,,,,,,
13.499665999999998,0.0,0.0,1568.0,17.0,-1.9814754724502563,0.0017453292519943296,4.36,-0.2948501706123352,2.2559661865234375,0.6279899477958679,1491.0,-0.0022689280275926286,33.094553999999995,5.0,-7.0918660163879395,0.0,2.149896572606615,1500.0,0.0,51.459537999999995,0.0,33.055032,1417.0,-0.0193081796169281,-2.6243820190429688,19011.406982421875,444.0,0.0,1000.0,5.0,0.0,0.0,1500.0,0.0,0.4422664324553631,0.0,1.0,-2.7909154,-0.0033161255787892262,0.0670931339263916,-14.0,5.217562198638916,1500.0,0.0,-3.0,-0.27576202181510406,197.0,1603.0,2.164003610610962,,,,,,,
13.599654000000001,0.0,0.0,1568.0,17.0,-1.9814754724502563,0.0017453292519943296,4.36,-0.30108803510665894,3.130305051803589,0.6382856965065002,1491.0,-0.0024434609527920616,33.194542,5.0,-9.340497016906738,0.0,2.128079956956686,1500.0,0.0,51.459537999999995,0.0,33.174849,1417.0,-0.05113523080945015,-2.6181108951568604,19011.406982421875,444.0,0.0,1000.0,5.0,0.0,0.0,1500.0,0.0,0.47752208334564855,0.0,1.0,-2.7909154,-0.003490658503988659,0.12128373980522156,-14.0,6.631828784942627,1500.0,0.0,-3.0,-0.28832839242946323,197.0,1603.0,2.164003610610962,,,,,,,
13.699748,0.0,0.0,1568.0,17.0,-2.15958571434021,0.0019198621771937625,4.37,-0.5384104251861572,2.2476186752319336,0.7153914570808411,1491.0,-0.0024434609527920616,33.294636,5.0,-12.040498733520508,0.0,2.102598149877569,1500.0,0.0,51.4595364,0.0,33.254968,1418.0,0.0026153905782848597,-2.6325714588165283,18615.783935546875,444.0,0.0,1000.0,5.0,0.0,0.0,1500.0,0.0,0.48904125640881113,0.0,1.0,-2.7909124,-0.003490658503988659,0.14708879590034485,-14.0,6.03317403793335,1500.0,0.0,-3.0,-0.2930407814098479,197.0,1602.0,2.3720810413360596,,,,,,,
13.799734,0.0,0.0,1568.0,17.0,-2.15958571434021,0.0017453292519943296,4.37,-0.7361632585525513,0.6806451082229614,0.6323400735855103,1491.0,-0.002617993877991494,33.394622,5.0,-8.490516662597656,0.0,2.071182223341671,1500.0,0.0,51.4595364,0.0,33.374699,1418.0,0.2958376109600067,-2.675541877746582,18615.783935546875,444.0,0.0,1000.0,5.0,0.0,0.0,1500.0,0.0,0.45483280306972235,0.0,1.0,-2.7909124,-0.003665191429188092,0.27353355288505554,-14.0,4.209684371948242,1500.0,0.0,-3.0,-0.27558748888990464,197.0,1602.0,2.3720810413360596,,,,,,,
13.899743,0.0,0.0,1568.0,17.0,-2.371091365814209,0.0017453292519943296,4.38,-0.6193906664848328,1.45516836643219,0.6238418817520142,1490.0,-0.002617993877991494,33.494631,5.0,-5.796442985534668,0.0,2.0451768174869556,1501.0,0.0,51.4595345,0.0,33.455009,1417.0,0.3665359318256378,-2.7121167182922363,18615.783935546875,444.0,0.0,1000.0,5.0,0.0,0.0,1500.0,0.0,0.4293509959906051,0.0,1.0,-2.7909089,-0.003665191429188092,0.2941775918006897,-14.0,2.848344087600708,1500.0,0.0,-3.0,-0.2584832622203602,197.0,1603.0,2.614837884902954,,,,,,,
13.999754000000003,0.0,0.0,1569.0,17.0,-2.371091365814209,0.0017453292519943296,4.38,-0.30223652720451355,1.3140113353729248,0.6226873993873596,1490.0,-0.002617993877991494,33.594642,5.0,-7.5853657722473145,0.0,2.0092230348958724,1500.0,0.0,51.4595345,0.0,33.575258,1417.0,0.4245256781578064,-2.7233519554138184,18615.783935546875,444.0,0.0,1000.0,5.0,0.0,0.0,1500.0,0.0,0.4188790204786391,0.0,1.0,-2.7909089,-0.003665191429188092,0.17805485427379608,-14.0,4.606871604919434,1501.0,0.0,-3.0,-0.2675589743307307,197.0,1603.0,2.614837884902954,,,,,,,
14.099750999999998,0.0,0.0,1568.0,16.0,-2.549201488494873,0.0017453292519943296,4.43,-0.29844170808792114,2.575206756591797,0.6614857912063599,1491.0,-0.002617993877991494,33.694638999999995,5.0,-9.88961410522461,0.0,2.000147322785502,1500.0,0.0,51.4595329,0.0,33.655060999999996,1418.0,0.46201539039611816,-2.726573944091797,18529.95703125,444.0,0.0,1000.0,5.0,0.0,0.0,1500.0,0.0,0.42341687653382437,0.0,1.0,-2.7909053,-0.003665191429188092,0.15483030676841736,-14.0,5.228893756866455,1500.0,0.0,-3.0,-0.2935643801854462,197.0,1602.0,2.864530563354492,,,,,,,
14.199638,0.0,0.0,1568.0,16.0,-2.549201488494873,0.0017453292519943296,4.43,-0.5649857521057129,4.157646656036377,0.6746165156364441,1491.0,-0.0027925268031909274,33.794526,5.0,-11.777190208435059,0.0,2.012364627549462,1500.0,0.0,51.4595329,0.0,33.774848999999996,1418.0,0.5237006545066833,-2.729372501373291,18529.95703125,444.0,0.0,1000.0,5.0,0.0,0.0,1500.0,0.0,0.4103269071438669,0.0,1.0,-2.7909053,-0.003839724354387525,0.3044995963573456,-14.0,5.628708839416504,1500.0,0.0,-3.0,-0.33457961760731303,197.0,1602.0,2.864530563354492,,,,,,,
14.299747000000004,0.0,0.0,1569.0,17.0,-2.671652317047119,0.0017453292519943296,4.44,-0.7372821569442749,2.927048444747925,0.4811944365501404,1490.0,-0.0027925268031909274,33.894635,5.0,-8.8082914352417,0.0,2.028945255443408,1500.0,0.0,51.4595318,0.0,33.855011,1417.0,0.5266739726066589,-2.762277364730835,18524.2353515625,444.0,0.0,1000.0,5.0,0.0,0.0,1500.0,0.0,0.37611845380477804,0.0,1.0,-2.7909015999999998,-0.003839724354387525,0.2761140465736389,-14.0,1.3058497905731201,1501.0,0.0,-3.0,-0.33161255787892263,197.0,1603.0,3.121159076690674,,,,,,,
14.399748000000002,0.0,0.0,1569.0,17.0,-2.671652317047119,0.0015707963267948964,4.44,-0.563527524471283,2.030980110168457,0.26034530997276306,1490.0,-0.0029670597283903604,33.994636,5.0,-6.549304962158203,0.0,2.0561723917745196,1500.0,0.0,51.4595318,0.0,33.975162,1417.0,0.607689380645752,-2.795727014541626,18529.95703125,444.0,0.0,1000.0,5.0,0.0,0.0,1500.0,0.0,0.3337069529813158,0.0,1.0,-2.7909015999999998,-0.003839724354387525,0.10322020202875137,-14.0,2.3359391689300537,1500.0,0.0,-3.0,-0.289026524130261,197.0,1603.0,3.121159076690674,,,,,,,
14.499740000000003,0.0,0.0,1568.0,17.0,-2.805234909057617,0.0017453292519943296,4.51,-0.3553910553455353,2.0817348957061768,0.2506330907344818,1491.0,-0.0029670597283903604,34.094628,5.0,-6.854790687561035,0.0,2.0697859599400754,1500.0,0.0,51.4595306,0.0,34.054975999999996,1418.0,0.607079803943634,-2.809950351715088,18529.95703125,444.0,0.0,1000.0,5.0,0.0,0.0,1500.0,0.0,0.32916909692613056,0.0,1.0,-2.7908980999999997,-0.003839724354387525,0.08773717284202576,-14.0,3.733279228210449,1500.0,0.0,-3.0,-0.2710496328347194,197.0,1602.0,3.3639161586761475,,,,,,,
14.599752000000002,0.0,0.0,1568.0,17.0,-2.805234909057617,0.0015707963267948964,4.51,-0.2062034010887146,3.1838581562042236,0.27845388650894165,1491.0,-0.0029670597283903604,34.19464,5.0,-8.338862419128418,0.0,2.0685642294636795,1500.0,0.0,51.4595306,0.0,34.174693,1418.0,0.5187560319900513,-2.793731927871704,18529.95703125,444.0,0.0,1000.0,5.0,0.0,0.0,1500.0,0.0,0.3485422516232676,0.0,1.0,-2.7908980999999997,-0.003839724354387525,0.23998697102069855,-14.0,4.329058647155762,1500.0,0.0,-3.0,-0.2694788365079245,197.0,1602.0,3.3639161586761475,,,,,,,
14.699751,0.0,0.0,1569.0,17.0,-2.9276857376098633,0.0017453292519943296,4.58,-0.30505239963531494,2.803126096725464,0.2718370258808136,1490.0,-0.0029670597283903604,34.294639,5.0,-11.783102989196777,0.0,2.055474260073722,1500.0,0.0,51.459529499999995,0.0,34.255033,1417.0,0.4843451976776123,-2.790341377258301,18524.2353515625,444.0,0.0,1000.0,5.0,0.0,0.0,1500.0,0.0,0.3675663404700058,0.0,1.0,-2.7908948,-0.003839724354387525,0.05161010101437569,-14.0,6.318143367767334,1500.0,0.0,-3.0,-0.2708750999095199,197.0,1603.0,3.592801332473755,,,,,,,
14.799655000000001,0.0,0.0,1568.0,17.0,-2.9276857376098633,0.0015707963267948964,4.58,-0.7432692646980286,2.171001434326172,0.20646671950817108,1491.0,-0.003141592653589793,34.394543,5.0,-10.371109962463379,0.0,2.0378464346285794,1500.0,0.0,51.459529499999995,0.0,34.374879,1417.0,0.5662100315093994,-2.8078393936157227,18529.95703125,444.0,0.0,1000.0,5.0,0.0,0.0,1500.0,0.0,0.3584906283596353,0.0,1.0,-2.7908948,-0.003839724354387525,0.07483464479446411,-14.0,0.8708261251449585,1500.0,0.0,-3.0,-0.25237460983838006,197.0,1603.0,3.592801332473755,,,,,,,
14.899734000000002,0.0,0.0,1568.0,17.0,-3.1057958602905273,0.0017453292519943296,4.5600000000000005,-0.6914401650428772,0.965125560760498,0.08965016156435013,1491.0,-0.003141592653589793,34.494622,5.0,-7.716591835021973,0.0,2.017600615305445,1500.0,0.0,51.4595279,0.0,34.455006,1418.0,0.7305885553359985,-2.844670295715332,18524.2353515625,444.0,0.0,1000.0,5.0,0.0,0.0,1500.0,0.0,0.3399901382884954,0.0,1.0,-2.7908914,-0.003839724354387525,0.19869889318943024,-14.0,3.2262210845947266,1500.0,0.0,-3.0,-0.22636920398366456,197.0,1602.0,3.8286218643188477,,,,,,,
14.999763000000002,0.0,0.0,1568.0,17.0,-3.1057958602905273,0.0015707963267948964,4.5600000000000005,-0.4412563741207123,1.9330503940582275,0.06830079853534698,1491.0,-0.0033161255787892262,34.594651,5.0,-6.479946136474609,0.0,1.9860101558443477,1500.0,0.0,51.4595279,0.0,34.575316,1418.0,0.7448805570602417,-2.8680849075317383,18524.2353515625,444.0,0.0,1000.0,5.0,0.0,0.0,1500.0,0.0,0.3310889591033243,0.0,1.0,-2.7908914,-0.003839724354387525,0.06193212419748306,-14.0,2.9594664573669434,1500.0,0.0,-3.0,-0.2256710722828668,197.0,1602.0,3.8286218643188477,,,,,,,
15.099659000000003,0.0,0.0,1568.0,17.0,-3.2616422176361084,0.0015707963267948964,4.63,-0.269854336977005,2.151311159133911,0.08788560330867767,1491.0,-0.0033161255787892262,34.694547,5.0,-7.494378566741943,0.0,1.9706512584267974,1501.0,0.0,51.459526499999996,0.0,34.655041,1417.0,0.7112263441085815,-2.874093532562256,18524.2353515625,444.0,0.0,1000.0,5.0,0.0,0.0,1500.0,0.0,0.3405137370640937,0.0,1.0,-2.7908882999999998,-0.003839724354387525,0.11354222148656845,-14.0,4.094439506530762,1500.0,0.0,-3.0,-0.23841197582242543,197.0,1602.0,4.043635368347168,,,,,,,
15.199756,0.0,0.0,1568.0,17.0,-3.2616422176361084,0.0013962634015954637,4.63,-0.23857595026493073,3.1756935119628906,0.10918967425823212,1490.0,-0.0033161255787892262,34.794644,5.0,-10.169471740722656,0.0,1.9645426060448175,1500.0,0.0,51.459526499999996,0.0,34.77475,1417.0,0.6567083597183228,-2.854255437850952,18524.2353515625,444.0,0.0,1001.0,5.0,0.0,0.0,1501.0,0.0,0.3677408733952052,0.0,1.0,-2.7908882999999998,-0.003665191429188092,0.17031334340572357,-14.0,4.8307013511657715,1500.0,0.0,-3.0,-0.2644173816771409,197.0,1603.0,4.043635368347168,,,,,,,
15.299756000000002,0.0,0.0,1568.0,17.0,-3.4174885749816895,0.0015707963267948964,4.66,-0.4332427680492401,4.385375022888184,0.11057942360639572,1491.0,-0.0033161255787892262,34.894644,5.0,-11.64091682434082,0.0,1.9757127132575811,1500.0,0.0,51.4595251,0.0,34.855011,1418.0,0.6323215365409851,-2.8581910133361816,18524.2353515625,444.0,0.0,1000.0,5.0,0.0,0.0,1500.0,0.0,0.37995817815916555,0.0,1.0,-2.7908852,-0.003665191429188092,0.1006397008895874,-14.0,4.5880608558654785,1500.0,0.0,-3.0,-0.28623399732707,197.0,1602.0,4.25864839553833,,,,,,,
15.399633999999999,0.0,0.0,1568.0,17.0,-3.4174885749816895,0.0013962634015954637,4.66,-0.6394463777542114,2.3634331226348877,-0.17921248078346252,1491.0,-0.0033161255787892262,34.994521999999996,5.0,-9.194415092468262,0.0,2.0118410287738637,1500.0,0.0,51.4595251,0.0,34.97517,1418.0,0.6387877464294434,-2.8822429180145264,18524.2353515625,444.0,0.0,1000.0,5.0,0.0,0.0,1500.0,0.0,0.3672172746196069,0.0,1.0,-2.7908852,-0.003665191429188092,0.2864360511302948,-14.0,1.9971598386764526,1500.0,0.0,-3.0,-0.28361600344907856,197.0,1602.0,4.25864839553833,,,,,,,
15.499741,0.0,0.0,1568.0,17.0,-3.5733349323272705,0.0015707963267948964,4.68,-0.5645118951797485,1.9654207229614258,-0.25113996863365173,1490.0,-0.0033161255787892262,35.094629,5.0,-6.2943034172058105,0.0,2.039417230955374,1500.0,0.0,51.4595237,0.0,35.054971,1417.0,0.6803832650184631,-2.909632444381714,18000.6435546875,444.0,0.0,1001.0,5.0,0.0,0.0,1500.0,0.0,0.3551745027808461,0.0,1.0,-2.7908815,-0.003665191429188092,0.23740646243095398,-14.0,2.887803554534912,1501.0,0.0,-3.0,-0.25970499269675623,197.0,1603.0,4.515276908874512,,,,,,,
15.599736999999998,0.0,0.0,1569.0,17.0,-3.5733349323272705,0.0013962634015954637,4.68,-0.23392349481582642,1.9821381568908691,-0.2541501522064209,1490.0,-0.003490658503988659,35.194624999999995,5.0,-6.334690093994141,0.0,2.07135675626687,1500.0,0.0,51.4595237,0.0,35.174749999999996,1417.0,0.6119919419288635,-2.913577079772949,18524.2353515625,444.0,0.0,1000.0,5.0,0.0,0.0,1500.0,0.0,0.35325464060365236,0.0,1.0,-2.7908815,-0.003665191429188092,0.14450828731060028,-14.0,3.8514270782470703,1500.0,0.0,-3.0,-0.23335052099164189,197.0,1603.0,4.515276908874512,,,,,,,
15.700029,0.0,0.0,1568.0,17.0,-3.7291812896728516,0.0015707963267948964,4.75,-0.14672459661960602,2.875833034515381,-0.23262594640254974,1491.0,-0.003490658503988659,35.294917,5.0,-9.757882118225098,0.0,2.0799088696016423,1500.0,0.0,51.459522299999996,0.0,35.254993,1418.0,0.516029953956604,-2.9066998958587646,18294.276123046875,444.0,0.0,1000.0,5.0,0.0,0.0,1500.0,0.0,0.3665191429188092,0.0,1.0,-2.7908781,-0.003665191429188092,0.059351615607738495,-14.0,4.740639686584473,1500.0,0.0,-3.0,-0.23177972466484698,197.0,1602.0,4.751098155975342,,,,,,,
15.799731999999999,0.0,0.0,1568.0,17.0,-3.7291812896728516,0.0013962634015954637,4.75,-0.3947131931781769,0.9873486757278442,-0.24140767753124237,1491.0,-0.003490658503988659,35.394619999999996,5.0,-12.244874954223633,0.0,2.0816541988536366,1500.0,0.0,51.459522299999996,0.0,35.374842,1418.0,0.4424379765987396,-2.8934545516967773,18294.276123046875,444.0,0.0,1000.0,5.0,0.0,0.0,1500.0,0.0,0.39845866823030546,0.0,1.0,-2.7908781,-0.003490658503988659,0.10580071061849594,-14.0,6.10244083404541,1500.0,0.0,-3.0,-0.21991148575128552,197.0,1602.0,4.751098155975342,,,,,,,
15.899676,0.0,0.0,1569.0,17.0,-3.9184234142303467,0.0015707963267948964,4.76,-0.6334453821182251,0.28007936477661133,-0.25057950615882874,1490.0,-0.003490658503988659,35.494564,5.0,-9.436169624328613,0.0,2.0753710135464574,1500.0,0.0,51.4595206,0.0,35.455005,1417.0,0.5471609830856323,-2.9164302349090576,18000.6435546875,444.0,0.0,1000.0,5.0,0.0,0.0,1500.0,0.0,0.40352012306108903,0.0,1.0,-2.7908752,-0.003490658503988659,0.08773717284202576,-14.0,2.206700563430786,1500.0,0.0,-3.0,-0.20141099568014564,197.0,1603.0,4.952239513397217,,,,,,,
15.999735999999999,0.0,0.0,1568.0,17.0,-3.9184234142303467,0.0015707963267948964,4.76,-0.5331321954727173,1.5783944129943848,-0.315262109041214,1491.0,-0.003490658503988659,35.594623999999996,5.0,-6.710695266723633,0.0,2.0535543978965283,1500.0,0.0,51.4595206,0.0,35.575274,1417.0,0.6963743567466736,-2.9484970569610596,18000.6435546875,444.0,0.0,1000.0,5.0,0.0,0.0,1500.0,0.0,0.39653880605311165,0.0,1.0,-2.7908752,-0.003490658503988659,0.20644040405750275,-14.0,2.979147434234619,1500.0,0.0,-3.0,-0.17749998492782332,197.0,1603.0,4.952239513397217,,,,,,,
16.099746000000003,0.0,0.0,1568.0,17.0,-4.118797302246094,0.0015707963267948964,4.82,-0.31039857864379883,1.5150655508041382,-0.33660057187080383,1491.0,-0.003490658503988659,35.694634,5.0,-6.439394474029541,0.0,2.035053907825388,1500.0,0.0,51.4595188,0.0,35.655038,1418.0,0.6583256721496582,-2.964017629623413,18000.6435546875,444.0,0.0,1000.0,5.0,0.0,0.0,1500.0,0.0,0.393048147549123,0.0,1.0,-2.7908721,-0.003490658503988659,0.07483464479446411,-14.0,3.5687007904052734,1500.0,0.0,-3.0,-0.18081611050661253,197.0,1602.0,5.167252540588379,,,,,,,
16.199741000000003,0.0,0.0,1568.0,17.0,-4.118797302246094,0.0015707963267948964,4.82,-0.15211477875709534,2.7918052673339844,-0.3094163239002228,1491.0,-0.003490658503988659,35.794629,5.0,-9.3446044921875,0.0,2.025978195715018,1500.0,0.0,51.4595188,0.0,35.774844,1418.0,0.5861272215843201,-2.9509212970733643,18000.6435546875,444.0,0.0,1000.0,5.0,0.0,0.0,1500.0,0.0,0.4066617157146788,0.0,1.0,-2.7908721,-0.0033161255787892262,0.010322020389139652,-14.0,4.745408535003662,1500.0,0.0,-3.0,-0.205599785884932,197.0,1602.0,5.167252540588379,,,,,,,
16.299744000000004,0.0,0.0,1568.0,17.0,-4.30803918838501,0.0015707963267948964,4.88,-0.28221938014030457,2.7660717964172363,-0.35763803124427795,1491.0,-0.003490658503988659,35.894632,5.0,-12.15507698059082,0.0,2.036624704152183,1500.0,0.0,51.4595171,0.0,35.854987,1418.0,0.5404313206672668,-2.950949192047119,17999.100341796875,444.0,0.0,1000.0,5.0,0.0,0.0,1500.0,0.0,0.4157374278250493,0.0,1.0,-2.790869,-0.0033161255787892262,0.056771110743284225,-14.0,6.086957931518555,1500.0,0.0,-3.0,-0.22165681500327988,197.0,1602.0,5.382266044616699,,,,,,,
16.399649000000004,0.0,0.0,1568.0,17.0,-4.30803918838501,0.0015707963267948964,4.88,-0.5576016902923584,3.0626416206359863,-0.5348773002624512,1490.0,-0.003490658503988659,35.994537,5.0,-9.850398063659668,0.0,2.069960492865275,1500.0,0.0,51.4595171,0.0,35.975117,1417.0,0.5208560824394226,-2.9727089405059814,17999.100341796875,444.0,0.0,1000.0,5.0,0.0,0.0,1501.0,0.0,0.4028219913602913,0.0,1.0,-2.790869,-0.0033161255787892262,0.12902525067329407,-14.0,1.9064534902572632,1500.0,0.0,-3.0,-0.24085543677521748,197.0,1603.0,5.382266044616699,,,,,,,
16.499743000000002,0.0,0.0,1568.0,17.0,-4.519545078277588,0.0017453292519943296,4.9,-0.5194219946861267,2.10166597366333,-0.7018826007843018,1491.0,-0.003665191429188092,36.094631,5.0,-7.069103240966797,0.0,2.1001546889247766,1500.0,0.0,51.4595152,0.0,36.055009999999996,1418.0,0.5627167820930481,-3.0015156269073486,16816.479736328125,444.0,0.0,1000.0,5.0,0.0,0.0,1500.0,0.0,0.38257617203715705,0.0,1.0,-2.7908656,-0.0033161255787892262,0.16515232622623444,-14.0,3.035220146179199,1500.0,0.0,-3.0,-0.22706733568446227,197.0,1602.0,5.618086814880371,,,,,,,
16.59964,0.0,0.0,1568.0,17.0,-4.519545078277588,0.0017453292519943296,4.9,-0.23117399215698242,1.549655795097351,-0.7072733640670776,1491.0,-0.003665191429188092,36.194528,5.0,-6.270810127258301,0.0,2.14535871655143,1500.0,0.0,51.4595152,0.0,36.174862,1418.0,0.4965636730194092,-3.0187976360321045,17999.100341796875,444.0,0.0,1000.0,5.0,0.0,0.0,1500.0,0.0,0.3642502148912166,0.0,1.0,-2.7908656,-0.0033161255787892262,0.025805050507187843,-14.0,3.4781315326690674,1500.0,0.0,-3.0,-0.19896753472735357,197.0,1602.0,5.618086814880371,,,,,,,
16.699628000000004,0.0,0.0,1568.0,17.0,-4.708786964416504,0.0019198621771937625,4.96,-0.05303487181663513,3.019915819168091,-0.6747028231620789,1490.0,-0.003665191429188092,36.294516,5.0,-7.437960624694824,0.0,2.161066679819379,1500.0,0.0,51.4595135,0.0,36.254956,1417.0,0.4311349093914032,-3.0164859294891357,17999.100341796875,444.0,0.0,1001.0,5.0,0.0,0.0,1501.0,0.0,0.37210419652519106,0.0,1.0,-2.7908625,-0.0033161255787892262,0.005161010194569826,-14.0,4.778624534606934,1500.0,0.0,-3.0,-0.20158552860534507,197.0,1603.0,5.833099842071533,,,,,,,
16.799737,0.0,0.0,1569.0,17.0,-4.708786964416504,0.0019198621771937625,4.96,-0.1398162990808487,2.94549822807312,-0.6761919856071472,1490.0,-0.003665191429188092,36.394625,5.0,-11.421863555908203,0.0,2.1689206614533534,1500.0,0.0,51.4595135,0.0,36.374748,1417.0,0.28582650423049927,-2.994873285293579,18986.913818359375,444.0,0.0,1000.0,5.0,0.0,0.0,1500.0,0.0,0.3989822670059037,0.0,1.0,-2.7908625,-0.003141592653589793,-0.020644040778279305,-14.0,5.795964241027832,1500.0,0.0,-3.0,-0.20682151636132803,197.0,1603.0,5.833099842071533,,,,,,,
16.899729,0.0,0.0,1568.0,17.0,-4.920292854309082,0.0020943951023931952,4.95,-0.4932498335838318,1.8659284114837646,-0.6317552924156189,1491.0,-0.003665191429188092,36.494617,5.0,-11.736818313598633,0.0,2.1670007992761593,1500.0,0.0,51.4595116,0.0,36.454977,1418.0,0.3465634286403656,-3.0069632530212402,18986.913818359375,444.0,0.0,1000.0,5.0,0.0,0.0,1500.0,0.0,0.4029965242854907,0.0,1.0,-2.7908598,-0.003141592653589793,0.007741515524685383,-14.0,2.880366802215576,1500.0,0.0,-3.0,-0.20420352248333656,197.0,1602.0,6.020369529724121,,,,,,,
16.999782000000003,0.0,0.0,1568.0,17.0,-4.920292854309082,0.0022689280275926286,4.95,-0.5728184580802917,0.23171402513980865,-0.7148920297622681,1491.0,-0.003665191429188092,36.59467,5.0,-8.247620582580566,0.0,2.1547834945121993,1500.0,0.0,51.4595116,0.0,36.575271,1418.0,0.5663886666297913,-3.0504097938537598,20923.107666015625,444.0,0.0,1000.0,5.0,0.0,0.0,1500.0,0.0,0.3712315318991939,0.0,1.0,-2.7908598,-0.003141592653589793,0.24514798820018768,-14.0,3.534917116165161,1500.0,0.0,-3.0,-0.18675022996339327,197.0,1602.0,6.020369529724121,,,,,,,
17.099747999999998,0.0,0.0,1569.0,17.0,-5.154062747955322,0.0022689280275926286,4.99,-0.40481582283973694,1.2379932403564453,-0.6728000640869141,1490.0,-0.003665191429188092,36.694635999999996,5.0,-6.22258186340332,0.0,2.1476276445790226,1500.0,0.0,51.459509499999996,0.0,36.655065,1417.0,0.6044449210166931,-3.0790107250213623,18986.913818359375,444.0,0.0,1000.0,5.0,0.0,0.0,1500.0,0.0,0.35779249665883756,0.0,1.0,-2.7908568,-0.003141592653589793,0.08515667170286179,-14.0,2.56418514251709,1500.0,0.0,-3.0,-0.17872171540421936,197.0,1603.0,6.2284464836120605,,,,,,,
17.199778000000002,0.0,0.0,1568.0,17.0,-5.154062747955322,0.0024434609527920616,4.99,-0.11215009540319443,1.506831169128418,-0.6326959729194641,1491.0,-0.003665191429188092,36.794666,5.0,-8.172165870666504,0.0,2.1387264653938516,1500.0,0.0,51.459509499999996,0.0,36.774888,1417.0,0.5828986167907715,-3.0839195251464844,20923.107666015625,444.0,0.0,1000.0,5.0,0.0,0.0,1500.0,0.0,0.3626794185644217,0.0,1.0,-2.7908568,-0.003141592653589793,0.012902525253593922,-14.0,4.441497325897217,1500.0,0.0,-3.0,-0.1864011641129944,197.0,1603.0,6.2284464836120605,,,,,,,
17.299761000000004,0.0,0.0,1568.0,17.0,-5.365568161010742,0.002617993877991494,5.07,-0.15492643415927887,2.355710744857788,-0.6068970561027527,1491.0,-0.003665191429188092,36.894649,5.0,-10.804411888122559,0.0,2.1467549799530254,1500.0,0.0,51.459507599999995,0.0,36.854997999999995,1418.0,0.5504366755485535,-3.0832107067108154,18986.913818359375,444.0,0.0,1000.0,5.0,0.0,0.0,1500.0,0.0,0.37507125625358145,0.0,1.0,-2.7908538,-0.003141592653589793,0.04128808155655861,-14.0,4.8834381103515625,1500.0,0.0,-3.0,-0.20699604928652748,197.0,1602.0,6.436523914337158,,,,,,,
17.399727,0.0,0.0,1568.0,17.0,-5.365568161010742,0.0027925268031909274,5.07,-0.42426377534866333,2.7587058544158936,-0.5719906687736511,1491.0,-0.003665191429188092,36.994614999999996,5.0,-11.436227798461914,0.0,2.188119283225291,1500.0,0.0,51.459507599999995,0.0,36.975086,1418.0,0.5674794912338257,-3.0955677032470703,20923.107666015625,444.0,0.0,1000.0,5.0,0.0,0.0,1500.0,0.0,0.3876376268679406,0.0,1.0,-2.7908538,-0.0029670597283903604,0.1264447569847107,-14.0,4.893155097961426,1500.0,0.0,-3.0,-0.24748768793279594,197.0,1602.0,6.436523914337158,,,,,,,
17.499661000000003,0.0,0.0,1568.0,17.0,-5.532546520233154,0.0027925268031909274,5.0600000000000005,-0.5788018107414246,2.738889217376709,-0.7199689149856567,1491.0,-0.003665191429188092,37.094549,5.0,-8.937520980834961,0.0,2.2233749341155766,1500.0,0.0,51.4595061,0.0,37.055012,1418.0,0.5604529976844788,-3.1278579235076904,18986.913818359375,444.0,0.0,1000.0,5.0,0.0,0.0,1500.0,0.0,0.3815289744859604,0.0,1.0,-2.7908507,-0.0029670597283903604,0.27353355288505554,-14.0,1.9932349920272827,1500.0,0.0,-3.0,-0.2645919146023404,197.0,1602.0,6.65153694152832,,,,,,,
17.599654,0.0,0.0,1568.0,17.0,-5.532546520233154,0.003141592653589793,5.0600000000000005,-0.4409137964248657,1.3267557621002197,-0.8033440709114075,1490.0,-0.003665191429188092,37.194542,5.0,-6.1606879234313965,0.0,2.269626159293426,1501.0,0.0,51.4595061,0.0,37.174701999999996,1417.0,0.6052871346473694,-3.171663284301758,18986.913818359375,444.0,0.0,1000.0,5.0,0.0,0.0,1500.0,0.0,0.3633775502652194,0.0,1.0,-2.7908507,-0.0029670597283903604,0.1935378760099411,-14.0,2.605952739715576,1500.0,0.0,-3.0,-0.23160519173964753,197.0,1603.0,6.65153694152832,,,,,,,
17.699738000000004,0.0,0.0,1568.0,17.0,-5.699524879455566,0.003141592653589793,5.1000000000000005,-0.18373547494411469,1.1732842922210693,-0.7783781290054321,1491.0,-0.003665191429188092,37.294626,5.0,-7.101496696472168,0.0,2.2902210444669593,1500.0,0.0,51.459504599999995,0.0,37.255027,1418.0,0.6085823774337769,-3.1879689693450928,18986.913818359375,444.0,0.0,1000.0,5.0,0.0,0.0,1500.0,0.0,0.36704274169440754,0.0,1.0,-2.7908477,-0.0029670597283903604,0.27353355288505554,-14.0,3.804003953933716,1500.0,0.0,-3.0,-0.2145009650701031,197.0,1602.0,6.859614372253418,,,,,,,
17.799659,0.0,0.0,1568.0,17.0,-5.699524879455566,0.003490658503988659,5.1000000000000005,-0.057301755994558334,2.77999210357666,-0.6605786681175232,1491.0,-0.003665191429188092,37.394546999999996,5.0,-8.104714393615723,0.0,2.285334122561375,1500.0,0.0,51.459504599999995,0.0,37.374868,1418.0,0.5161972641944885,-3.1784024238586426,20994.22705078125,444.0,0.0,1000.0,5.0,0.0,0.0,1500.0,0.0,0.39653880605311165,0.0,1.0,-2.7908477,-0.0027925268031909274,-0.03096606209874153,-14.0,5.427606582641602,1500.0,0.0,-3.0,-0.22602013813326569,197.0,1602.0,6.859614372253418,,,,,,,
17.899729999999998,0.0,0.0,1568.0,17.0,-5.8665032386779785,0.003490658503988659,5.08,-0.1406702697277069,1.5823380947113037,-0.623803973197937,1490.0,-0.003665191429188092,37.494617999999996,5.0,-11.484996795654297,0.0,2.2650883032382407,1500.0,0.0,51.4595031,0.0,37.455011999999996,1417.0,0.4625411629676819,-3.1761655807495117,18986.913818359375,444.0,0.0,1000.0,5.0,0.0,0.0,1501.0,0.0,0.41783182292744253,0.0,1.0,-2.7908448,-0.0027925268031909274,0.10580071061849594,-14.0,6.718836784362793,1500.0,0.0,-3.0,-0.24207716725161352,197.0,1603.0,7.060755729675293,,,,,,,
17.999758999999997,0.0,0.0,1569.0,17.0,-5.8665032386779785,0.003839724354387525,5.08,-0.5013705492019653,1.5052316188812256,-0.5898818373680115,1490.0,-0.003665191429188092,37.594646999999995,5.0,-9.77839469909668,0.0,2.2225022694895795,1500.0,0.0,51.4595031,0.0,37.575283,1417.0,0.5549376606941223,-3.191694736480713,18986.913818359375,444.0,0.0,1000.0,5.0,0.0,0.0,1500.0,0.0,0.40910517666747087,0.0,1.0,-2.7908448,-0.0027925268031909274,0.2012794017791748,-14.0,2.134220838546753,1501.0,0.0,-3.0,-0.23335052099164189,197.0,1603.0,7.060755729675293,,,,,,,
18.099643999999998,0.0,0.0,1568.0,17.0,-6.0557451248168945,0.003839724354387525,5.05,-0.46605491638183594,1.055945873260498,-0.6095992922782898,1491.0,-0.003665191429188092,37.694531999999995,5.0,-7.532225608825684,0.0,2.1821851637685103,1500.0,0.0,51.4595014,0.0,37.655032,1417.0,0.6826912760734558,-3.219670295715332,18986.913818359375,444.0,0.0,1000.0,5.0,0.0,0.0,1500.0,0.0,0.3906046865963309,0.0,1.0,-2.7908418999999998,-0.0027925268031909274,0.3174021244049072,-14.0,3.362584114074707,1500.0,0.0,-3.0,-0.2097885760897184,197.0,1603.0,7.261897087097168,,,,,,,
18.199723,0.0,0.0,1568.0,17.0,-6.0557451248168945,0.0041887902047863905,5.05,-0.2181444615125656,1.7151384353637695,-0.5652544498443604,1491.0,-0.003665191429188092,37.794610999999996,5.0,-6.577590465545654,0.0,2.117957047295119,1500.0,0.0,51.4595014,0.0,37.774682,1418.0,0.6892502307891846,-3.235211133956909,18986.913818359375,444.0,0.0,1000.0,5.0,0.0,0.0,1500.0,0.0,0.37227872945039053,0.0,1.0,-2.7908418999999998,-0.0027925268031909274,0.05161010101437569,-14.0,3.382153034210205,1500.0,0.0,-3.0,-0.2064724505109292,197.0,1602.0,7.261897087097168,,,,,,,
18.299750000000003,0.0,0.0,1569.0,17.0,-6.2449870109558105,0.0041887902047863905,5.0600000000000005,-0.06149083003401756,1.9286630153656006,-0.5213686227798462,1490.0,-0.003665191429188092,37.894638,5.0,-8.305627822875977,0.0,2.0816541988536366,1500.0,0.0,51.459499699999995,0.0,37.855038,1417.0,0.6658906936645508,-3.2337448596954346,18035.42822265625,444.0,0.0,1000.0,5.0,0.0,0.0,1500.0,0.0,0.3741985916275843,0.0,1.0,-2.7908388,-0.0027925268031909274,0.1006397008895874,-14.0,4.561699390411377,1500.0,0.0,-3.0,-0.22165681500327988,197.0,1603.0,7.476910591125488,,,,,,,
18.399841000000002,0.0,0.0,1569.0,17.0,-6.2449870109558105,0.004537856055185257,5.0600000000000005,-0.13385328650474548,3.1840689182281494,-0.45804455876350403,1490.0,-0.003839724354387525,37.994729,5.0,-10.32889461517334,0.0,2.0472712125893486,1500.0,0.0,51.459499699999995,0.0,37.975265,1417.0,0.6377217173576355,-3.211176872253418,18035.42822265625,444.0,0.0,1000.0,5.0,0.0,0.0,1500.0,0.0,0.38501963298994907,0.0,1.0,-2.7908388,-0.002617993877991494,0.06967363506555557,-14.0,5.232585430145264,1500.0,0.0,-3.0,-0.25708699881876473,197.0,1603.0,7.476910591125488,,,,,,,
18.499747,0.0,0.0,1568.0,17.0,-6.389701843261719,0.004363323129985824,5.1000000000000005,-0.3813192844390869,5.108966827392578,-0.4516177475452423,1491.0,-0.003839724354387525,38.094635,5.0,-10.525940895080566,0.0,2.04063896143177,1500.0,0.0,51.4594984,0.0,38.05497,1418.0,0.617132306098938,-3.217125654220581,18003.34375,444.0,0.0,1000.0,5.0,0.0,0.0,1500.0,0.0,0.3832743037379548,0.0,1.0,-2.7908356999999997,-0.002617993877991494,0.14708879590034485,-14.0,2.8118999004364014,1500.0,0.0,-3.0,-0.27995081201989047,197.0,1602.0,7.69192361831665,,,,,,,
18.599778,0.0,0.0,1568.0,17.0,-6.389701843261719,0.00471238898038469,5.1000000000000005,-0.4794004559516907,3.3202309608459473,-0.7417163848876953,1491.0,-0.003839724354387525,38.194666,5.0,-8.657448768615723,0.0,2.049540140616941,1500.0,0.0,51.4594984,0.0,38.174806,1418.0,0.5978440046310425,-3.244126319885254,18003.34375,444.0,0.0,1000.0,5.0,0.0,0.0,1500.0,0.0,0.3513347784264585,0.0,1.0,-2.7908356999999997,-0.002617993877991494,0.30708011984825134,-14.0,1.6970616579055786,1500.0,0.0,-3.0,-0.2689552377323262,197.0,1602.0,7.69192361831665,,,,,,,
18.699661,0.0,0.0,1568.0,17.0,-6.556680202484131,0.00471238898038469,5.15,-0.37087932229042053,2.190108299255371,-0.8363425135612488,1491.0,-0.003839724354387525,38.294548999999996,5.0,-6.535837173461914,0.0,2.0697859599400754,1500.0,0.0,51.4594969,0.0,38.255018,1418.0,0.5706515312194824,-3.26582670211792,16814.46142578125,444.0,0.0,1000.0,5.0,0.0,0.0,1500.0,0.0,0.33597588100890846,0.0,1.0,-2.7908323999999998,-0.002617993877991494,0.1341862678527832,-14.0,2.740743398666382,1500.0,0.0,-3.0,-0.24958208303518914,197.0,1602.0,7.920808792114258,,,,,,,
18.799761000000004,0.0,0.0,1568.0,17.0,-6.556680202484131,0.004886921905584123,5.15,-0.08331466466188431,2.6403167247772217,-0.8122128844261169,1490.0,-0.003839724354387525,38.394649,5.0,-6.666254997253418,0.0,2.091777108515204,1501.0,0.0,51.4594969,0.0,38.374702,1417.0,0.48115113377571106,-3.266996383666992,16814.46142578125,444.0,0.0,1000.0,5.0,0.0,0.0,1500.0,0.0,0.3438298626428829,0.0,1.0,-2.7908323999999998,-0.002617993877991494,0.167732834815979,-14.0,3.719064712524414,1500.0,0.0,-3.0,-0.24033183799961916,197.0,1603.0,7.920808792114258,,,,,,,
18.899768,0.0,0.0,1568.0,17.0,-6.712526321411133,0.004886921905584123,5.21,0.006876935251057148,3.26259708404541,-0.7989479303359985,1491.0,-0.003839724354387525,38.494656,5.0,-8.816410064697266,0.0,2.099805623074378,1500.0,0.0,51.459495499999996,0.0,38.454997999999996,1418.0,0.36650019884109497,-3.257777690887451,16806.386474609375,444.0,0.0,1000.0,5.0,0.0,0.0,1500.0,0.0,0.3665191429188092,0.0,1.0,-2.7908296,-0.002617993877991494,0.056771110743284225,-14.0,4.655637741088867,1500.0,0.0,-3.0,-0.24713862208239706,197.0,1602.0,8.11501407623291,,,,,,,
18.999752,0.0,0.0,1568.0,17.0,-6.712526321411133,0.005061454830783556,5.21,-0.16477814316749573,2.0507516860961914,-0.7762028574943542,1491.0,-0.003839724354387525,38.59464,5.0,-11.831995010375977,0.0,2.1064378742319563,1500.0,0.0,51.459495499999996,0.0,38.575341,1418.0,0.24217329919338226,-3.23992919921875,16806.386474609375,444.0,0.0,1000.0,5.0,0.0,0.0,1500.0,0.0,0.40334559013588955,0.0,1.0,-2.7908296,-0.0024434609527920616,0.09031768143177032,-14.0,6.119263648986816,1500.0,0.0,-3.0,-0.24225170017681297,197.0,1602.0,8.11501407623291,,,,,,,
19.099650000000004,0.0,0.0,1568.0,17.0,-6.901768207550049,0.005061454830783556,5.2,-0.42734214663505554,0.5619570016860962,-0.7786412835121155,1490.0,-0.003839724354387525,38.694538,5.0,-9.956758499145508,0.0,2.10835773640915,1501.0,0.0,51.4594938,0.0,38.654978,1417.0,0.29885825514793396,-3.2545971870422363,16806.386474609375,444.0,0.0,1000.0,5.0,0.0,0.0,1500.0,0.0,0.4036946559862884,0.0,1.0,-2.7908272999999997,-0.0024434609527920616,0.06193212419748306,-14.0,2.4641923904418945,1500.0,0.0,-3.0,-0.2282890661608583,197.0,1603.0,8.274539947509766,,,,,,,
19.199783000000004,0.0,0.0,1569.0,17.0,-6.901768207550049,0.0054105206811824215,5.2,-0.4104509949684143,1.6320157051086426,-0.7718514800071716,1490.0,-0.003839724354387525,38.794671,5.0,-7.56903076171875,0.0,2.0964894974955888,1500.0,0.0,51.4594938,0.0,38.774877,1417.0,0.4834021329879761,-3.2845077514648438,18257.298828125,444.0,0.0,1000.0,5.0,0.0,0.0,1500.0,0.0,0.38903389026953605,0.0,1.0,-2.7908272999999997,-0.0024434609527920616,0.1935378760099411,-14.0,3.619715690612793,1501.0,0.0,-3.0,-0.20961404316451898,197.0,1603.0,8.274539947509766,,,,,,,
19.299728,0.0,0.0,1568.0,17.0,-7.102142333984375,0.0054105206811824215,5.2,-0.24254104495048523,1.6802242994308472,-0.7779643535614014,1491.0,-0.003839724354387525,38.894616,5.0,-6.464870452880859,0.0,2.088111917086016,1500.0,0.0,51.459492,0.0,38.854999,1417.0,0.45273345708847046,-3.3018734455108643,18257.298828125,444.0,0.0,1000.0,5.0,0.0,0.0,1500.0,0.0,0.38013271108436497,0.0,1.0,-2.790825,-0.0024434609527920616,0.08773717284202576,-14.0,3.591909885406494,1500.0,0.0,-3.0,-0.20943951023931956,197.0,1603.0,8.434065818786621,,,,,,,
19.399625,0.0,0.0,1568.0,17.0,-7.102142333984375,0.005759586531581287,5.2,-0.02085156738758087,2.2543182373046875,-0.7183141112327576,1491.0,-0.003839724354387525,38.994513,5.0,-7.893529415130615,0.0,2.0924752402160016,1500.0,0.0,51.459492,0.0,38.975100999999995,1418.0,0.403660386800766,-3.29414701461792,18257.298828125,444.0,0.0,1000.0,5.0,0.0,0.0,1500.0,0.0,0.38414696836395196,0.0,1.0,-2.790825,-0.0022689280275926286,0.04128808155655861,-14.0,3.961926221847534,1500.0,0.0,-3.0,-0.2267182698340634,197.0,1602.0,8.434065818786621,,,,,,,
19.499738,0.0,0.0,1569.0,17.0,-7.257988929748535,0.005585053606381855,5.28,-0.04409310966730118,2.896949291229248,-0.7072880268096924,1490.0,-0.003839724354387525,39.094626,5.0,-9.668660163879395,0.0,2.110626664436743,1500.0,0.0,51.459490599999995,0.0,39.055031,1417.0,0.3743314743041992,-3.2860500812530518,18257.298828125,444.0,0.0,1000.0,5.0,0.0,0.0,1500.0,0.0,0.3953170755767157,0.0,1.0,-2.7908228999999998,-0.0022689280275926286,0.11354222148656845,-14.0,5.271553039550781,1500.0,0.0,-3.0,-0.23841197582242543,197.0,1603.0,8.579720497131348,,,,,,,
19.599652,0.0,0.0,1569.0,17.0,-7.257988929748535,0.005934119456780721,5.28,-0.3137172758579254,4.809586524963379,-0.6942659020423889,1490.0,-0.003839724354387525,39.194539999999996,5.0,-10.296038627624512,0.0,2.155481626212997,1500.0,0.0,51.459490599999995,0.0,39.174853,1417.0,0.34569159150123596,-3.2860944271087646,21000.0,444.0,0.0,1000.0,5.0,0.0,0.0,1500.0,0.0,0.40055306333269863,0.0,1.0,-2.7908228999999998,-0.0022689280275926286,0.04644909128546715,-14.0,3.0400848388671875,1500.0,0.0,-3.0,-0.26022859147235455,197.0,1603.0,8.579720497131348,,,,,,,
19.699663,0.0,0.0,1568.0,17.0,-7.436099052429199,0.005934119456780721,5.25,-0.38313528895378113,2.7797250747680664,-0.91197669506073,1491.0,-0.003839724354387525,39.294551,5.0,-9.009029388427734,0.0,2.1931807380560744,1500.0,0.0,51.459489,0.0,39.254996999999996,1418.0,0.3875424861907959,-3.3063766956329346,18257.298828125,444.0,0.0,1000.0,5.0,0.0,0.0,1500.0,0.0,0.38885935734433663,0.0,1.0,-2.7908204,-0.0022689280275926286,0.13160575926303864,-14.0,3.538761615753174,1500.0,0.0,-3.0,-0.2584832622203602,197.0,1602.0,8.753117561340332,,,,,,,
19.799642,0.0,0.0,1568.0,17.0,-7.436099052429199,0.006283185307179586,5.25,-0.28362035751342773,1.9806334972381592,-0.9272332787513733,1491.0,-0.003839724354387525,39.394529999999996,5.0,-6.294822692871094,0.0,2.2549653935766734,1500.0,0.0,51.459489,0.0,39.374803,1418.0,0.3522258698940277,-3.331331491470337,18257.298828125,444.0,0.0,1000.0,5.0,0.0,0.0,1500.0,0.0,0.3694862026471996,0.0,1.0,-2.7908204,-0.0022689280275926286,0.08515667170286179,-14.0,3.401005506515503,1500.0,0.0,-3.0,-0.24940755010998972,197.0,1602.0,8.753117561340332,,,,,,,
19.899727,0.0,0.0,1568.0,17.0,-7.603076934814453,0.006283185307179586,5.29,-0.09198139607906342,2.3885483741760254,-0.8854598999023438,1491.0,-0.003839724354387525,39.494614999999996,5.0,-6.54334020614624,0.0,2.288126649364566,1500.0,0.0,51.459487499999994,0.0,39.454989999999995,1418.0,0.3009504973888397,-3.3381617069244385,18257.298828125,444.0,0.0,1000.0,5.0,0.0,0.0,1500.0,0.0,0.3724532623755899,0.0,1.0,-2.7908182999999998,-0.0022689280275926286,0.05161010101437569,-14.0,4.252875328063965,1500.0,0.0,-3.0,-0.25481807079117214,197.0,1602.0,8.898771286010742,,,,,,,
19.999639000000002,0.0,0.0,1568.0,17.0,-7.603076934814453,0.0066322511575784525,5.29,0.05612711235880852,3.123141050338745,-0.8490204215049744,1490.0,-0.004014257279586958,39.594527,5.0,-8.713823318481445,0.0,2.326000294132843,1501.0,0.0,51.459487499999994,0.0,39.575219,1417.0,0.14103387296199799,-3.3199617862701416,21006.301025390625,444.0,0.0,1000.0,5.0,0.0,0.0,1500.0,0.0,0.3940953451003196,0.0,1.0,-2.7908182999999998,-0.0020943951023931952,0.020644040778279305,-14.0,4.8647613525390625,1500.0,0.0,-3.0,-0.2556907354171693,197.0,1603.0,8.898771286010742,,,,,,,
20.099655,0.0,0.0,1568.0,17.0,-7.781187057495117,0.006457718232379019,5.29,-0.045279841870069504,1.533143401145935,-0.8585299849510193,1491.0,-0.003839724354387525,39.694542999999996,5.0,-11.054182052612305,0.0,2.3479914427079716,1500.0,0.0,51.4594859,0.0,39.655057,1418.0,0.08637359738349915,-3.3110852241516113,18257.298828125,444.0,0.0,1000.0,5.0,0.0,0.0,1500.0,0.0,0.41085050591946515,0.0,1.0,-2.7908166,-0.0020943951023931952,0.007741515524685383,-14.0,5.485918998718262,1500.0,0.0,-3.0,-0.24120450262561635,197.0,1602.0,9.016682624816895,,,,,,,
20.199638999999998,0.0,0.0,1568.0,17.0,-7.781187057495117,0.006806784082777886,5.29,-0.33367303013801575,1.950346827507019,-0.860541045665741,1491.0,-0.004014257279586958,39.794526999999995,5.0,-10.091970443725586,0.0,2.379756435094268,1500.0,0.0,51.4594859,0.0,39.774853,1418.0,0.1507522016763687,-3.31613826751709,18257.298828125,444.0,0.0,1000.0,5.0,0.0,0.0,1500.0,0.0,0.40334559013588955,0.0,1.0,-2.7908166,-0.0020943951023931952,0.1264447569847107,-14.0,2.6079092025756836,1500.0,0.0,-3.0,-0.20961404316451898,197.0,1602.0,9.016682624816895,,,,,,,
20.299640000000004,0.0,0.0,1568.0,17.0,-8.0149564743042,0.006806784082777886,5.25,-0.3324882984161377,1.162940263748169,-0.8918955326080322,1490.0,-0.004014257279586958,39.894528,5.0,-7.794567584991455,0.0,2.3991295897914053,1501.0,0.0,51.4594838,0.0,39.854997999999995,1417.0,0.253489226102829,-3.3352761268615723,18257.298828125,444.0,0.0,1000.0,5.0,0.0,0.0,1500.0,0.0,0.38676496224194346,0.0,1.0,-2.7908147,-0.0020943951023931952,0.2012794017791748,-14.0,3.357412099838257,1500.0,0.0,-3.0,-0.1752310569002307,197.0,1603.0,9.14846420288086,,,,,,,
20.399653999999998,0.0,0.0,1569.0,17.0,-8.0149564743042,0.007155849933176752,5.25,-0.11542807519435883,1.460638403892517,-0.8547810912132263,1490.0,-0.004014257279586958,39.994541999999996,5.0,-6.868410110473633,0.0,2.4335125760556937,1500.0,0.0,51.4594838,0.0,39.975276,1417.0,0.24805369973182678,-3.344228982925415,20955.99365234375,444.0,0.0,1000.0,5.0,0.0,0.0,1500.0,0.0,0.3665191429188092,0.0,1.0,-2.7908147,-0.0020943951023931952,0.15483030676841736,-14.0,3.3249576091766357,1501.0,0.0,-3.0,-0.14835298641951802,197.0,1603.0,9.14846420288086,,,,,,,
20.499659,0.0,0.0,1568.0,17.0,-8.248726844787598,0.007155849933176752,5.29,0.022836601361632347,2.191885471343994,-0.8512819409370422,1491.0,-0.004014257279586958,40.094547,5.0,-8.106050491333008,0.0,2.468244628170381,1500.0,0.0,51.4594817,0.0,40.05502,1417.0,0.211603581905365,-3.338848114013672,20955.99365234375,444.0,0.0,1000.0,5.0,0.0,0.0,1500.0,0.0,0.3584906283596353,0.0,1.0,-2.7908131999999997,-0.0020943951023931952,-0.04644909128546715,-14.0,3.942711353302002,1500.0,0.0,-3.0,-0.15166911199830724,197.0,1603.0,9.252503395080566,,,,,,,
20.599581999999998,0.0,0.0,1568.0,17.0,-8.248726844787598,0.007504915783575617,5.29,0.014783515594899654,2.477213144302368,-0.8647587299346924,1491.0,-0.004014257279586958,40.194469999999995,5.0,-10.033026695251465,0.0,2.5511477676401118,1500.0,0.0,51.4594817,0.0,40.174748,1418.0,0.18278801441192627,-3.314133882522583,20955.99365234375,444.0,0.0,1000.0,5.0,0.0,0.0,1500.0,0.0,0.3478441199224699,0.0,1.0,-2.7908131999999997,-0.0019198621771937625,0.020644040778279305,-14.0,3.2775449752807617,1500.0,0.0,-3.0,-0.16929693744344998,197.0,1602.0,9.252503395080566,,,,,,,
20.699995,0.0,0.0,1569.0,17.0,-8.449100494384766,0.007504915783575617,5.26,-0.10097747296094894,4.398244857788086,-0.914578914642334,1490.0,-0.004014257279586958,40.294883,5.0,-10.981300354003906,0.0,2.636494368062634,1500.0,0.0,51.4594799,0.0,40.255002999999995,1417.0,0.23955410718917847,-3.3080403804779053,18257.298828125,444.0,0.0,1000.0,5.0,0.0,0.0,1500.0,0.0,0.3431317309420852,0.0,1.0,-2.7908117,-0.0019198621771937625,0.012902525253593922,-14.0,2.8539180755615234,1500.0,0.0,-3.0,-0.18413223608540177,197.0,1603.0,9.356541633605957,,,,,,,
20.799622,0.0,0.0,1569.0,17.0,-8.449100494384766,0.007853981633974483,5.26,-0.2527104914188385,3.4097957611083984,-1.2420521974563599,1490.0,-0.004014257279586958,40.39451,5.0,-8.958627700805664,0.0,2.7942721324429214,1500.0,0.0,51.4594799,0.0,40.374885,1417.0,0.3500967025756836,-3.3114521503448486,20955.99365234375,444.0,0.0,1000.0,5.0,0.0,0.0,1500.0,0.0,0.31747539093776855,0.0,1.0,-2.7908117,-0.0019198621771937625,0.0335465669631958,-14.0,2.419269561767578,1500.0,0.0,-3.0,-0.1616174887346749,197.0,1603.0,9.356541633605957,,,,,,,
20.899661000000002,0.0,0.0,1568.0,17.0,-8.62721061706543,0.007853981633974483,5.26,-0.18280281126499176,1.1476577520370483,-1.3356668949127197,1491.0,-0.004014257279586958,40.494549,5.0,-7.225407600402832,0.0,2.907718533822553,1500.0,0.0,51.4594783,0.0,40.455025,1418.0,0.3584963083267212,-3.320533275604248,18257.298828125,444.0,0.0,1000.0,5.0,0.0,0.0,1500.0,0.0,0.2982767691658309,0.0,1.0,-2.7908098999999997,-0.0019198621771937625,0.015483031049370766,-14.0,1.8301138877868652,1500.0,0.0,-3.0,-0.12461650859239513,197.0,1602.0,9.481388092041016,,,,,,,
20.999657,0.0,0.0,1568.0,17.0,-8.62721061706543,0.008377580409572781,5.26,0.09651497006416321,1.1973506212234497,-1.3332058191299438,1491.0,-0.0041887902047863905,40.594545,5.0,-7.536877632141113,0.0,3.0791098663683965,1500.0,0.0,51.4594783,0.0,40.575421,1418.0,0.4111873209476471,-3.305886745452881,18257.298828125,444.0,0.0,1000.0,5.0,0.0,0.0,1500.0,0.0,0.2871066619530672,0.0,1.0,-2.7908098999999997,-0.0019198621771937625,-0.0670931339263916,-14.0,2.658109664916992,1500.0,0.0,-3.0,-0.0942477796076938,197.0,1602.0,9.481388092041016,,,,,,,
21.099744,0.0,0.0,1568.0,17.0,-8.794188499450684,0.008377580409572781,5.26,0.2038993537425995,1.1209734678268433,-1.3470262289047241,1491.0,-0.0041887902047863905,40.694632,5.0,-8.536802291870117,0.0,3.187843878767643,1500.0,0.0,51.4594768,0.0,40.654982,1418.0,0.43125203251838684,-3.284857988357544,18257.298828125,444.0,0.0,1000.0,5.0,0.0,0.0,1500.0,0.0,0.2879793265790644,0.0,1.0,-2.7908090999999997,-0.0019198621771937625,-0.12902525067329407,-14.0,2.759760856628418,1500.0,0.0,-3.0,-0.07801621756414652,197.0,1602.0,9.53687572479248,,,,,,,
21.199618,0.0,0.0,1568.0,17.0,-8.794188499450684,0.008726646259971648,5.26,0.20176829397678375,0.9213887453079224,-1.2962359189987183,1490.0,-0.0041887902047863905,40.794506,5.0,-11.532094955444336,0.0,3.3349751347107652,1501.0,0.0,51.4594768,0.0,40.774698,1417.0,0.4858512878417969,-3.2368180751800537,18488.763671875,444.0,0.0,1000.0,5.0,0.0,0.0,1500.0,0.0,0.28483773392547457,0.0,1.0,-2.7908090999999997,-0.0017453292519943296,-0.010322020389139652,-14.0,2.4692795276641846,1500.0,0.0,-3.0,-0.038571776469074684,197.0,1603.0,9.53687572479248,,,,,,,
21.299654000000004,0.0,0.0,1568.0,17.0,-8.950035095214844,0.00890117918517108,5.24,0.13030321896076202,0.6940096616744995,-1.2855803966522217,1491.0,-0.0041887902047863905,40.894542,5.0,-9.954174041748047,0.0,3.4222415973104816,1500.0,0.0,51.459475399999995,0.0,40.854994999999995,1418.0,0.6594322323799133,-3.216171979904175,18257.298828125,444.0,0.0,1000.0,5.0,0.0,0.0,1500.0,0.0,0.26162485487395,0.0,1.0,-2.7908093999999997,-0.0017453292519943296,-0.11870323121547699,-14.0,1.5408949851989746,1500.0,0.0,-3.0,-0.00942477796076938,197.0,1602.0,9.516067504882812,,,,,,,
21.399570000000004,0.0,0.0,1568.0,17.0,-8.950035095214844,0.00942477796076938,5.24,0.15076550841331482,-0.21865811944007874,-1.2733354568481445,1491.0,-0.004363323129985824,40.994458,5.0,-9.1847562789917,0.0,3.532546406036523,1500.0,0.0,51.459475399999995,0.0,40.975114,1418.0,0.7828737497329712,-3.181583881378174,18257.298828125,444.0,0.0,1000.0,5.0,0.0,0.0,1500.0,0.0,0.20891591146372127,0.0,1.0,-2.7908093999999997,-0.0017453292519943296,-0.1341862678527832,-14.0,2.1397900581359863,1500.0,0.0,-3.0,0.03787364476827695,197.0,1602.0,9.516067504882812,,,,,,,
21.499655000000004,0.0,0.0,1568.0,17.0,-9.0836181640625,0.00942477796076938,5.2,0.19989636540412903,0.010040251538157463,-1.2287073135375977,1490.0,-0.004363323129985824,41.094543,5.0,-8.262351989746094,0.0,3.60427943829349,1501.0,0.0,51.459474199999995,0.0,41.054983,1417.0,0.8226494193077087,-3.1600844860076904,18006.045654296875,444.0,0.0,1000.0,5.0,0.0,0.0,1500.0,0.0,0.1637118838370681,0.0,1.0,-2.7908098,-0.0017453292519943296,-0.13934727013111115,-14.0,1.539749026298523,1500.0,0.0,-3.0,0.04921828490624009,197.0,1603.0,9.488324165344238,,,,,,,
21.59962,0.0,0.0,1569.0,17.0,-9.0836181640625,0.009948376736367679,5.2,0.3342139720916748,-0.7362877726554871,-1.1622207164764404,1490.0,-0.004363323129985824,41.194508,5.0,-9.265212059020996,0.0,3.7049849361335627,1500.0,0.0,51.459474199999995,0.0,41.174855,1417.0,0.8316993117332458,-3.110647439956665,18257.298828125,444.0,0.0,1000.0,5.0,0.0,0.0,1500.0,0.0,0.10053096491487337,0.0,1.0,-2.7908098,-0.0015707963267948964,-0.11354222148656845,-14.0,1.2833787202835083,1501.0,0.0,-3.0,0.0460766922526503,197.0,1603.0,9.488324165344238,,,,,,,
