time_index,global_position_longitude,wind_y,velocity_y,servos_4,position_x,servos_5,servos_3,tx_controls_4,axis_rate_yaw,tx_controls_7,servos_2,airspeed_0,time_actual,position_y,tx_controls_5,attitude_roll,rpm_1,tx_controls_1,servos_1,mode_0,tx_controls_3,tx_controls_2,mode_1,altitude_gps,tx_controls_6,wind_x,velocity_x,servos_6,velocity_z,gps_sat_count_0,magnetometer_2,magnetometer_0,servos_7,attitude_yaw,tx_controls_0,position_z,global_position_latitude,axis_rate_pitch,servos_0,acceleration_z,altitude_baro,acceleration_y,magnetometer_1,time_flight,acceleration_x,mode_2,rpm_0,axis_rate_roll,attitude_pitch,battery_0,current_3,current_2,battery_1,current_1,airspeed_1,current_0
0.0,-2.7912817999999997,0.0,-0.044934261590242386,0.0,0.0,0.0,0.0,1417.0,0.0,1500.0,0.0,0.0,21.582227,0.0,1500.0,0.004537856055185257,-14.0,1572.0,0.0,5.0,1605.0,1495.0,5.0,12.34,1500.0,0.0,-0.05435916781425476,0.0,0.08884444832801819,14.0,457.0,150.0,0.0,2.4403193601384716,1000.0,-0.023507798090577126,51.4594448,0.0,0.0,-9.669757843017578,0.22605755925178528,0.44021207094192505,-2.0,21.601008,1.5064566135406494,1.0,599.9879913330078,0.0,0.06387905062299247,,,,,,,
0.10001799999999861,-2.7912817999999997,0.0,-0.04705395922064781,0.0,0.0,0.0,0.0,1417.0,0.0,1500.0,0.0,0.0,21.661956,0.0,1500.0,0.004363323129985824,-14.0,1572.0,0.0,5.0,1605.0,1495.0,5.0,12.34,1500.0,0.0,-0.05728795379400253,0.0,0.08639427274465561,14.0,457.0,150.0,0.0,2.440493893063671,1000.0,-0.027684370055794716,51.4594448,0.0,0.0,-9.680845260620117,0.011302878148853779,0.4539766013622284,-2.0,21.701026,1.5520130395889282,1.0,600.1080474853516,0.0,0.06370451769779303,,,,,,,
0.19998999999999967,-2.7912819,0.0,-0.04062163457274437,0.0,0.0,0.0,0.0,1418.0,0.0,1500.0,0.0,0.0,21.78163,0.0,1500.0,0.004537856055185257,-14.0,1572.0,0.0,5.0,1605.0,1494.0,5.0,12.35,1500.0,0.0,-0.05423321574926376,0.0,0.0839262381196022,14.0,457.0,150.0,0.0,2.44084295891407,1000.0,-0.03154879808425903,51.4594446,0.0,0.0,-9.655505180358887,0.20345181226730347,0.5326277017593384,-2.0,21.800998,1.528440237045288,1.0,599.9879913330078,0.0,0.06370451769779303,,,,,,,
0.29991799999999813,-2.7912819,0.0,-0.03612896054983139,0.0,0.0,0.0,0.0,1417.0,0.0,1500.0,0.0,0.0,21.861442,0.0,1500.0,0.004363323129985824,-14.0,1572.0,0.0,5.0,1605.0,1495.0,5.0,12.35,1501.0,0.0,-0.05044471099972725,0.0,0.08178315311670303,14.0,457.0,150.0,0.0,2.4411920247644687,1000.0,-0.03311993554234505,51.4594446,0.0,0.0,-9.636627197265625,0.11868022382259369,0.48630446195602417,-2.0,21.900926,1.5189483165740967,1.0,600.1080474853516,0.0,0.0635299847725936,,,,,,,
0.3999629999999996,-2.7912822,0.0,-0.039346009492874146,0.0,0.0,0.0,0.0,1418.0,0.0,1500.0,0.0,0.0,21.981593999999998,0.0,1500.0,0.003839724354387525,-14.0,1572.0,0.0,5.0,1605.0,1494.0,5.0,12.32,1500.0,0.0,-0.057321567088365555,0.0,0.08014226704835892,14.0,457.0,150.0,0.0,2.441541090614868,1000.0,-0.035833992063999176,51.4594445,0.0,0.0,-9.608180046081543,0.15541458129882812,0.31756827235221863,-2.0,22.000971,1.4697715044021606,1.0,599.9879913330078,0.0,0.0635299847725936,,,,,,,
0.49997199999999964,-2.7912822,0.0,-0.03183257579803467,0.0,0.0,0.0,0.0,1418.0,-0.00017453292519943296,1500.0,0.0,0.0,22.061939,0.0,1500.0,0.003490658503988659,-14.0,1572.0,0.0,5.0,1605.0,1494.0,5.0,12.32,1500.0,0.0,-0.05077067017555237,0.0,0.07958412915468216,14.0,457.0,150.0,0.0,2.441715623540067,1000.0,-0.037261176854372025,51.4594445,0.0,0.0,-9.636895179748535,0.04238579422235489,0.5566774606704712,-2.0,22.10098,1.5139765739440918,1.0,600.1080474853516,0.0,0.0635299847725936,,,,,,,
0.5999829999999982,-2.7912827,0.0,-0.030641919001936913,0.0,0.0,0.0,0.0,1417.0,-0.00017453292519943296,1500.0,0.0,0.0,22.181606,0.0,1500.0,0.004014257279586958,-14.0,1572.0,0.0,5.0,1605.0,1495.0,5.0,12.36,1500.0,0.0,-0.05133829638361931,0.0,0.0787648856639862,14.0,457.0,150.0,0.0,2.4420646893904663,1000.0,-0.037538688629865646,51.459444299999994,0.0,0.0,-9.669698715209961,0.11585450172424316,0.25542810559272766,-2.0,22.200991,1.501571536064148,1.0,600.1080474853516,0.0,0.06335545184739416,,,,,,,
0.7000019999999978,-2.7912827,0.0,-0.031690385192632675,0.0,0.0,0.0,0.0,1417.0,-0.00017453292519943296,1500.0,0.0,0.0,22.261456,0.0,1500.0,0.002617993877991494,-14.0,1572.0,0.0,5.0,1605.0,1495.0,5.0,12.36,1500.0,0.0,-0.053574901074171066,0.0,0.07887689769268036,14.0,457.0,150.0,0.0,2.4425882881660645,1000.0,-0.036501117050647736,51.459444299999994,0.0,0.0,-9.666084289550781,0.20910324156284332,0.4261179566383362,-2.0,22.301009999999998,1.5484570264816284,1.0,602.7243423461914,0.0,0.06335545184739416,,,,,,,
0.7999469999999995,-2.7912833,0.0,-0.027735164389014244,0.0,0.0,0.0,0.0,1418.0,-0.00034906585039886593,1500.0,0.0,0.0,22.381477999999998,0.0,1500.0,0.003665191429188092,-14.0,1572.0,0.0,5.0,1605.0,1494.0,5.0,12.43,1500.0,0.0,-0.051495667546987534,0.0,0.07672020047903061,14.0,457.0,150.0,0.0,2.442937354016463,1000.0,-0.036617957055568695,51.4594441,0.0,0.0,-9.621392250061035,0.05368867143988609,0.38957250118255615,-2.0,22.400955,1.527537226676941,1.0,600.2521362304688,0.00017453292519943296,0.06318091892219473,,,,,,,
0.8999639999999971,-2.7912833,0.0,-0.0260026678442955,0.0,0.0,0.0,0.0,1417.0,-0.00034906585039886593,1501.0,0.0,0.0,22.461426,0.0,1500.0,0.003665191429188092,-14.0,1572.0,0.0,5.0,1605.0,1495.0,5.0,12.43,1500.0,0.0,-0.05265692621469498,0.0,0.0769939124584198,14.0,457.0,150.0,0.0,2.4431118869416624,1000.0,-0.03651781752705574,51.4594441,0.0,0.0,-9.637317657470703,0.18084605038166046,0.3031805753707886,-2.0,22.500971999999997,1.4743362665176392,1.0,602.7243423461914,0.00017453292519943296,0.06318091892219473,,,,,,,
0.9999819999999993,-2.7912836999999997,0.0,-0.023158319294452667,0.0,0.0,0.0,0.0,1418.0,-0.0005235987755982988,1500.0,0.0,0.0,22.582081,0.0,1500.0,0.003490658503988659,-14.0,1572.0,0.0,5.0,1605.0,1494.0,5.0,12.46,1500.0,0.0,-0.05133407190442085,0.0,0.07703591138124466,14.0,457.0,150.0,0.0,2.4436354857172606,1000.0,-0.036087848246097565,51.459443799999995,0.0,0.0,-9.625304222106934,0.005651439074426889,0.3315224051475525,-2.0,22.60099,1.525233507156372,1.0,600.2521362304688,0.00034906585039886593,0.06318091892219473,,,,,,,
1.0999909999999993,-2.7912836999999997,0.0,-0.029396209865808487,0.0,0.0,0.0,0.0,1418.0,-0.0005235987755982988,1500.0,0.0,0.0,22.66202,0.0,1500.0,0.003490658503988659,-14.0,1572.0,0.0,5.0,1605.0,1494.0,5.0,12.46,1500.0,0.0,-0.058484774082899094,0.0,0.07803022116422653,14.0,457.0,150.0,0.0,2.4439845515676595,1000.0,-0.03481496870517731,51.459443799999995,0.0,0.0,-9.829626083374023,0.05086295306682587,0.12157563865184784,-2.0,22.700999,1.5195590257644653,1.0,600.2521362304688,0.00034906585039886593,0.06318091892219473,,,,,,,
1.1999879999999976,-2.7912843,0.0,-0.00941500160843134,0.0,0.0,0.0,0.0,1417.0,-0.0006981317007977319,1500.0,0.0,0.0,22.781489999999998,0.0,1500.0,0.0027925268031909274,-14.0,1572.0,0.0,5.0,1605.0,1495.0,5.0,12.46,1500.0,0.0,-0.044132448732852936,0.0,0.0788019672036171,14.0,457.0,150.0,0.0,2.444508150343258,1000.0,-0.03036879375576973,51.4594434,0.0,0.0,-9.642685890197754,0.15541458129882812,0.39227768778800964,-2.0,22.800995999999998,1.4239511489868164,1.0,600.240119934082,0.0005235987755982988,0.06318091892219473,,,,,,,
1.2999669999999988,-2.7912843,0.0,-0.024250943213701248,0.0,0.0,0.0,0.0,1417.0,-0.0006981317007977319,1500.0,0.0,0.0,22.861424,0.0,1500.0,0.0012217304763960308,-14.0,1572.0,0.0,5.0,1605.0,1495.0,5.0,12.46,1500.0,0.0,-0.05242390185594559,0.0,0.07596951723098755,14.0,457.0,150.0,0.0,2.444857216193657,1000.0,-0.027891021221876144,51.4594434,-0.00017453292519943296,0.0,-9.535774230957031,0.2175804078578949,0.47289109230041504,-2.0,22.900975,1.6522412300109863,1.0,600.240119934082,0.0006981317007977319,0.06318091892219473,,,,,,,
1.3999629999999996,-2.7912847,0.0,-0.00951466802507639,0.0,0.0,0.0,0.0,1418.0,-0.0008726646259971648,1500.0,0.0,0.0,22.981617,0.0,1500.0,0.0015707963267948964,-14.0,1572.0,0.0,5.0,1605.0,1494.0,5.0,12.51,1500.0,0.0,-0.03966372460126877,0.0,0.07324089854955673,14.0,457.0,150.0,0.0,2.4453808149692553,1000.0,-0.02705027349293232,51.459443099999994,-0.00017453292519943296,0.0,-9.585797309875488,0.13846026360988617,0.3542482554912567,-2.0,23.000971,1.5631942749023438,1.0,600.1080474853516,0.0008726646259971648,0.06318091892219473,,,,,,,
1.499969,-2.7912847,0.0,-0.016658218577504158,0.0,0.0,0.0,0.0,1417.0,-0.0008726646259971648,1501.0,0.0,0.0,23.06192,0.0,1500.0,0.00017453292519943296,-14.0,1572.0,0.0,5.0,1605.0,1495.0,5.0,12.51,1500.0,0.0,-0.04692354425787926,0.0,0.07325511425733566,14.0,457.0,150.0,0.0,2.4455553478944547,1000.0,-0.02790554240345955,51.459443099999994,-0.00017453292519943296,0.0,-9.51779842376709,0.08477158844470978,0.5288739800453186,-2.0,23.100977,1.5641229152679443,1.0,600.240119934082,0.0008726646259971648,0.06335545184739416,,,,,,,
1.5999409999999976,-2.7912851,0.0,-0.01036287285387516,0.0,0.0,0.0,0.0,1418.0,-0.0010471975511965976,1500.0,0.0,0.0,23.181639999999998,0.0,1500.0,0.0029670597283903604,-14.0,1572.0,0.0,5.0,1605.0,1494.0,5.0,12.52,1500.0,0.0,-0.04590224102139473,0.0,0.07803694158792496,15.0,457.0,150.0,0.0,2.446078946670053,1000.0,-0.027886494994163513,51.4594429,-0.00034906585039886593,0.0,-9.882952690124512,0.08194586634635925,0.13723987340927124,-2.0,23.200948999999998,1.4544869661331177,1.0,600.240119934082,0.0010471975511965976,0.06335545184739416,,,,,,,
1.6999609999999983,-2.7912851,0.0,-0.007469097152352333,0.0,0.0,0.0,0.0,1418.0,-0.0012217304763960308,1500.0,0.0,0.0,23.261298,0.0,1500.0,0.0019198621771937625,-14.0,1572.0,0.0,5.0,1605.0,1494.0,5.0,12.52,1500.0,0.0,-0.03828606754541397,0.0,0.07170871645212173,15.0,457.0,150.0,0.0,2.446428012520452,1000.0,-0.027299722656607628,51.4594429,-0.00034906585039886593,0.0,-9.469217300415039,0.14411169290542603,0.5327195525169373,-2.0,23.300969,1.5602456331253052,1.0,640.6286544799805,0.0012217304763960308,0.0635299847725936,,,,,,,
1.7999639999999992,-2.791286,0.0,-0.004703570157289505,0.0,0.0,0.0,0.0,1417.0,-0.0012217304763960308,1500.0,0.0,0.0,23.381581999999998,0.0,1500.0,0.0024434609527920616,-14.0,1572.0,0.0,5.0,1605.0,1495.0,5.0,12.55,1500.0,0.0,-0.03603533282876015,0.0,0.07208515703678131,15.0,457.0,150.0,0.0,2.4471261442212495,1000.0,-0.025997109711170197,51.459442499999994,-0.0005235987755982988,0.0,-9.651554107666016,0.18084605038166046,0.3265686333179474,-2.0,23.400972,1.551119327545166,1.0,600.240119934082,0.0013962634015954637,0.0635299847725936,,,,,,,
1.899956999999997,-2.791286,0.0,-0.002966316184028983,0.0,0.0,0.0,0.0,1417.0,-0.0012217304763960308,1500.0,0.0,0.0,23.461430999999997,0.0,1500.0,0.0020943951023931952,-14.0,1572.0,0.0,5.0,1605.0,1495.0,5.0,12.55,1500.0,0.0,-0.036201972514390945,0.0,0.07500506192445755,15.0,457.0,150.0,0.0,2.4474752100716484,1000.0,-0.026358339935541153,51.459442499999994,-0.0005235987755982988,0.0,-9.766181945800781,0.2288832813501358,0.34383851289749146,-2.0,23.500964999999997,1.4625329971313477,1.0,600.240119934082,0.0015707963267948964,0.06370451769779303,,,,,,,
1.9999819999999993,-2.7912868,0.0,0.004104591440409422,0.0,0.0,0.0,0.0,1418.0,-0.0013962634015954637,1500.0,0.0,0.0,23.582234,0.0,1500.0,0.0012217304763960308,-14.0,1572.0,0.0,5.0,1605.0,1494.0,5.0,12.57,1500.0,0.0,-0.022572407498955727,0.0,0.07285802811384201,15.0,457.0,150.0,0.0,2.448173341772446,1000.0,-0.02938295155763626,51.4594421,-0.0006981317007977319,0.0,-9.895052909851074,0.17802032828330994,0.28767725825309753,-2.0,23.60099,1.7498213052749634,1.0,600.1080474853516,0.0017453292519943296,0.06370451769779303,,,,,,,
2.0999540000000003,-2.7912868,0.0,0.0051841409876942635,0.0,0.0,0.0,0.0,1417.0,-0.0015707963267948964,1501.0,0.0,0.0,23.662034,0.0,1500.0,-0.00034906585039886593,-14.0,1572.0,0.0,5.0,1605.0,1495.0,5.0,12.57,1500.0,0.0,-0.02488434873521328,0.0,0.06697194278240204,15.0,457.0,150.0,0.0,2.4486969405480448,1000.0,-0.032685767859220505,51.4594421,-0.0006981317007977319,0.0,-9.668469429016113,0.12150593847036362,0.5457572340965271,-2.0,23.700962,1.5700215101242065,1.0,600.1080474853516,0.0019198621771937625,0.06387905062299247,,,,,,,
2.199940999999999,-2.7912876,0.0,0.0075047435238957405,0.0,0.0,0.0,0.0,1418.0,-0.0015707963267948964,1500.0,0.0,0.0,23.781608,0.0,1500.0,0.0005235987755982988,-14.0,1572.0,0.0,5.0,1605.0,1494.0,5.0,12.56,1500.0,0.0,-0.01910444349050522,0.0,0.06236470490694046,15.0,457.0,150.0,0.0,2.449220539323643,1000.0,-0.03710981085896492,51.4594418,-0.0008726646259971648,0.0,-9.59373664855957,0.19780036807060242,0.38511234521865845,-2.0,23.800949,1.5559849739074707,1.0,600.0960311889648,0.0020943951023931952,0.06422811647339133,,,,,,,
2.2999769999999984,-2.7912876,0.0,0.01150452345609665,0.0,0.0,0.0,0.0,1418.0,-0.0017453292519943296,1500.0,0.0,0.0,23.861437,0.0,1500.0,0.00034906585039886593,-14.0,1572.0,0.0,5.0,1605.0,1494.0,5.0,12.56,1500.0,0.0,-0.012544621713459492,0.0,0.06232335418462753,15.0,457.0,150.0,0.0,2.4497441380992413,1000.0,-0.04015691578388214,51.4594418,-0.0008726646259971648,0.0,-9.690263748168945,0.17236889898777008,0.3847426772117615,-2.0,23.900985,1.54847252368927,1.0,600.0960311889648,0.0022689280275926286,0.06422811647339133,,,,,,,
2.3999629999999996,-2.7912884,0.0,0.012335402891039848,0.0,0.0,0.0,0.0,1418.0,-0.0019198621771937625,1500.0,0.0,0.0,23.981583999999998,0.0,1500.0,-0.00034906585039886593,-14.0,1572.0,0.0,5.0,1604.0,1495.0,5.0,12.52,1500.0,0.0,-0.0084967240691185,0.0,0.059437766671180725,15.0,457.0,150.0,0.0,2.450616802725238,1000.0,-0.04543610289692879,51.4594415,-0.0008726646259971648,0.0,-9.671911239624023,0.20910324156284332,0.4543314576148987,-2.0,24.000971,1.5185623168945312,1.0,600.0960311889648,0.0022689280275926286,0.0645771823237902,,,,,,,
2.499958999999997,-2.7912884,0.0,0.01612909324467182,0.0,0.0,0.0,0.0,1417.0,-0.0019198621771937625,1500.0,0.0,0.0,24.061937999999998,0.0,1500.0,0.00017453292519943296,-14.0,1572.0,0.0,5.0,1605.0,1495.0,5.0,12.52,1500.0,0.0,-0.003301303368061781,0.0,0.05567954108119011,15.0,457.0,150.0,0.0,2.4509658685756373,1000.0,-0.04951145872473717,51.4594415,-0.0010471975511965976,0.0,-9.632710456848145,0.3390863537788391,0.21251563727855682,-2.0,24.100966999999997,1.4991228580474854,1.0,600.0960311889648,0.0024434609527920616,0.06475171524898962,,,,,,,
2.5999669999999995,-2.7912893,0.0,0.022825436666607857,0.0,0.0,0.0,0.0,1418.0,-0.0020943951023931952,1500.0,0.0,0.0,24.181514,0.0,1500.0,-0.0015707963267948964,-14.0,1572.0,0.0,5.0,1605.0,1494.0,5.0,12.46,1500.0,0.0,0.006515249609947205,0.0,0.0516936369240284,15.0,457.0,150.0,0.0,2.451838533201634,1000.0,-0.058941520750522614,51.4594412,-0.0010471975511965976,0.0,-9.648082733154297,0.25714048743247986,0.4981957972049713,-2.0,24.200975,1.4758919477462769,1.0,600.0960311889648,0.0024434609527920616,0.06492624817418906,,,,,,,
2.69998,-2.7912893,0.0,0.020628876984119415,0.0,0.0,0.0,0.0,1417.0,-0.0022689280275926286,1501.0,0.0,0.0,24.261461,0.0,1500.0,-0.0012217304763960308,-14.0,1572.0,0.0,5.0,1605.0,1495.0,5.0,12.46,1500.0,0.0,0.006088473834097385,0.0,0.0481434091925621,15.0,457.0,150.0,0.0,2.452187599052033,1000.0,-0.067190982401371,51.4594412,-0.0010471975511965976,0.0,-9.645824432373047,0.31082916259765625,0.2896086275577545,-2.0,24.300988,1.4205269813537598,1.0,600.0960311889648,0.0024434609527920616,0.0651007810993885,,,,,,,
2.799944,-2.7912901999999997,0.0,0.02638152427971363,0.0,0.0,0.0,0.0,1418.0,-0.0022689280275926286,1500.0,0.0,0.0,24.3816,0.0,1500.0,-0.0019198621771937625,-14.0,1572.0,0.0,5.0,1605.0,1494.0,5.0,12.38,1500.0,0.0,0.020594092085957527,0.0,0.0423315167427063,14.0,457.0,150.0,0.0,2.4530602636780303,1000.0,-0.08126518130302429,51.459441,-0.0010471975511965976,0.0,-9.673629760742188,0.22605755925178528,0.4160364270210266,-2.0,24.400952,1.4396064281463623,1.0,600.0960311889648,0.002617993877991494,0.06527531402458793,,,,,,,
2.89996,-2.7912901999999997,0.0,0.023552529513835907,0.0,0.0,0.0,0.0,1418.0,-0.0022689280275926286,1500.0,0.0,0.0,24.461413,0.0,1500.0,-0.0017453292519943296,-14.0,1572.0,0.0,5.0,1605.0,1494.0,5.0,12.38,1500.0,0.0,0.016973312944173813,0.0,0.03834863379597664,14.0,457.0,150.0,0.0,2.4535838624536286,1000.0,-0.0910257026553154,51.459441,-0.0012217304763960308,0.0,-9.753490447998047,0.3475635051727295,0.06804053485393524,-2.0,24.500968,1.5117077827453613,1.0,600.0960311889648,0.002617993877991494,0.06544984694978735,,,,,,,
2.999936999999999,-2.7912911,0.0,0.03279050067067146,0.0,0.0,0.0,0.0,1418.0,-0.0024434609527920616,1500.0,0.0,0.0,24.58197,0.0,1500.0,-0.0033161255787892262,-14.0,1572.0,0.0,5.0,1604.0,1495.0,5.0,12.32,1500.0,0.0,0.028360506519675255,0.0,0.02955775335431099,14.0,457.0,150.0,0.0,2.4544565270796257,1000.0,-0.10670913755893707,51.459440699999995,-0.0012217304763960308,0.0,-9.667625427246094,0.2712690830230713,0.5741790533065796,-2.0,24.600945,1.4893786907196045,1.0,600.0960311889648,0.002617993877991494,0.0656243798749868,,,,,,,
3.100007999999999,-2.7912911,0.0,0.026873387396335602,0.0,0.0,0.0,0.0,1417.0,-0.0024434609527920616,1500.0,0.0,0.0,24.66198,0.0,1500.0,-0.0024434609527920616,-14.0,1572.0,0.0,5.0,1605.0,1495.0,5.0,12.32,1500.0,0.0,0.02471517212688923,0.0,0.024213774129748344,14.0,457.0,150.0,0.0,2.4548055929300245,1000.0,-0.11800526827573776,51.459440699999995,-0.0012217304763960308,0.0,-9.6804780960083,0.08477158844470978,0.1646166443824768,-2.0,24.701016,1.4926235675811768,1.0,600.0960311889648,0.0024434609527920616,0.06579891280018622,,,,,,,
3.200257999999998,-2.7912920999999997,0.0,0.03222662955522537,0.0,0.0,0.0,0.0,1418.0,-0.002617993877991494,1500.0,0.0,0.0,24.781496,0.0,1500.0,-0.003665191429188092,-14.0,1572.0,0.0,5.0,1605.0,1494.0,5.0,12.24,1500.0,0.0,0.0327594093978405,0.0,0.018038105219602585,14.0,457.0,150.0,0.0,2.4555037246308222,1000.0,-0.13105927407741547,51.4594404,-0.0012217304763960308,0.0,-9.641892433166504,0.11868022382259369,0.48868706822395325,-2.0,24.801266,1.5072932243347168,1.0,600.0960311889648,0.0024434609527920616,0.06579891280018622,,,,,,,
3.299972999999998,-2.7912920999999997,0.0,0.029095832258462906,0.0,0.0,0.0,0.0,1417.0,-0.002617993877991494,1500.0,0.0,0.0,24.861445999999997,0.0,1500.0,-0.0027925268031909274,-14.0,1572.0,0.0,5.0,1605.0,1495.0,5.0,12.24,1500.0,0.0,0.031815305352211,0.0,0.01567917689681053,14.0,457.0,150.0,0.0,2.455852790481221,1000.0,-0.13620007038116455,51.4594404,-0.0012217304763960308,0.0,-9.65920639038086,0.1525888592004776,0.27306127548217773,-2.0,24.900980999999998,1.4990543127059937,1.0,749.962532043457,0.0024434609527920616,0.06597344572538566,,,,,,,
3.3999619999999986,-2.7912928,0.0,0.0319870300590992,0.0,0.0,0.0,0.0,1418.0,-0.0027925268031909274,1500.0,0.0,0.0,24.981605,0.0,1500.0,-0.0033161255787892262,-14.0,1572.0,0.0,5.0,1605.0,1494.0,5.0,12.17,1500.0,0.0,0.03683935105800629,0.0,0.013396401889622211,14.0,457.0,150.0,0.0,2.456725455107218,1000.0,-0.14127086102962494,51.45944,-0.0012217304763960308,0.0,-9.64916706085205,0.10455162078142166,0.44506311416625977,-2.0,25.00097,1.503426432609558,1.0,600.0960311889648,0.0024434609527920616,0.0661479786505851,,,,,,,
3.4999789999999997,-2.7912928,0.0,0.030976595357060432,0.0,0.0,0.0,0.0,1418.0,-0.0027925268031909274,1500.0,0.0,0.0,25.061901,0.0,1500.0,-0.0027925268031909274,-14.0,1572.0,0.0,5.0,1605.0,1494.0,5.0,12.17,1500.0,0.0,0.037150789052248,0.0,0.013141993433237076,14.0,457.0,150.0,0.0,2.4572490538828164,1000.0,-0.14300797879695892,51.45944,-0.0012217304763960308,0.0,-9.672910690307617,0.17236889898777008,0.32636162638664246,-2.0,25.100987,1.4893933534622192,1.0,600.7569808959961,0.0024434609527920616,0.0661479786505851,,,,,,,
3.599978,-2.7912933,0.0,0.03144313022494316,0.0,0.0,0.0,0.0,1418.0,-0.0029670597283903604,1500.0,0.0,0.0,25.181601,0.0,1500.0,-0.0033161255787892262,-14.0,1572.0,0.0,5.0,1604.0,1495.0,5.0,12.1,1500.0,0.0,0.039774246513843536,0.0,0.012400946579873562,13.0,457.0,150.0,0.0,2.458121718508814,1000.0,-0.1444046050310135,51.4594398,-0.0012217304763960308,0.0,-9.646852493286133,0.22040612995624542,0.4336315393447876,-2.0,25.200986,1.5172474384307861,1.0,600.0960311889648,0.0024434609527920616,0.0661479786505851,,,,,,,
3.7002360000000003,-2.7912933,0.0,0.030501222237944603,0.0,0.0,0.0,0.0,1417.0,-0.0029670597283903604,1500.0,0.0,0.0,25.261457999999998,0.0,1500.0,-0.003141592653589793,-14.0,1572.0,0.0,5.0,1605.0,1495.0,5.0,12.1,1500.0,0.0,0.03989693149924278,0.0,0.011275402270257473,13.0,457.0,150.0,0.0,2.458470784359213,1000.0,-0.14613661170005798,51.4594398,-0.0012217304763960308,0.0,-9.670134544372559,0.05368867143988609,0.34626758098602295,-2.0,25.301244,1.4922593832015991,1.0,600.7569808959961,0.0022689280275926286,0.06632251157578453,,,,,,,
3.799958,-2.7912939,0.0,0.0303361713886261,0.0,0.0,0.0,0.0,1418.0,-0.0029670597283903604,1500.0,0.0,0.0,25.381615999999998,0.0,1500.0,-0.003665191429188092,-14.0,1572.0,0.0,5.0,1605.0,1494.0,5.0,12.0,1500.0,0.0,0.04135856032371521,0.0,0.010102477855980396,13.0,457.0,150.0,0.0,2.4593434489852095,1000.0,-0.14717990159988403,51.459439499999995,-0.0012217304763960308,0.0,-9.662498474121094,0.0649915486574173,0.4340289235115051,-2.0,25.400966,1.5045597553253174,1.0,600.7569808959961,0.0022689280275926286,0.06632251157578453,,,,,,,
3.899927999999999,-2.7912939,0.0,0.027244312688708305,0.0,0.0,0.0,0.0,1417.0,-0.003141592653589793,1500.0,0.0,0.0,25.46146,0.0,1500.0,-0.003141592653589793,-14.0,1572.0,0.0,5.0,1605.0,1495.0,5.0,12.0,1500.0,0.0,0.039151351898908615,0.0,0.010526464320719242,13.0,457.0,150.0,0.0,2.459692514835609,1000.0,-0.14540593326091766,51.459439499999995,-0.0012217304763960308,0.0,-9.672646522521973,0.22605755925178528,0.32189953327178955,-2.0,25.500936,1.492688775062561,1.0,642.4258651733398,0.0022689280275926286,0.06632251157578453,,,,,,,
3.9999450000000003,-2.7912945,0.0,0.029349029064178467,0.0,0.0,0.0,0.0,1418.0,-0.003141592653589793,1500.0,0.0,0.0,25.582020999999997,0.0,1500.0,-0.003141592653589793,-14.0,1572.0,0.0,5.0,1605.0,1494.0,5.0,11.94,1500.0,0.0,0.04148444905877113,0.0,0.010575284250080585,13.0,457.0,150.0,0.0,2.4603906465364065,1000.0,-0.14355279505252838,51.4594393,-0.0012217304763960308,0.0,-9.654787063598633,0.17802032828330994,0.4335067868232727,-2.0,25.600953,1.5023560523986816,1.0,601.2265243530273,0.0022689280275926286,0.06632251157578453,,,,,,,
4.100009,-2.7912945,0.0,0.02680600993335247,0.0,0.0,0.0,0.0,1418.0,-0.003141592653589793,1500.0,0.0,0.0,25.661949,0.0,1500.0,-0.0027925268031909274,-14.0,1572.0,0.0,5.0,1605.0,1494.0,5.0,11.94,1500.0,0.0,0.038689322769641876,0.0,0.011268415488302708,13.0,457.0,150.0,0.0,2.4607397123868053,1000.0,-0.14390335977077484,51.4594393,-0.0012217304763960308,0.0,-9.681717872619629,-0.011302878148853779,0.3039608597755432,-2.0,25.701017,1.4793133735656738,1.0,601.2265243530273,0.0020943951023931952,0.06632251157578453,,,,,,,
4.199973,-2.791295,0.0,0.027212094515562057,0.0,0.0,0.0,0.0,1418.0,-0.003141592653589793,1500.0,0.0,0.0,25.781585999999997,0.0,1500.0,-0.0029670597283903604,-14.0,1572.0,0.0,5.0,1604.0,1495.0,5.0,11.870000000000001,1500.0,0.0,0.039286691695451736,0.0,0.011033250018954277,13.0,457.0,150.0,0.0,2.461437844087603,1000.0,-0.14154158532619476,51.459438999999996,-0.0012217304763960308,0.0,-9.65168571472168,0.183671772480011,0.44971272349357605,-2.0,25.800981,1.499080777168274,1.0,600.7569808959961,0.0020943951023931952,0.06632251157578453,,,,,,,
4.299956999999999,-2.791295,0.0,0.025412598624825478,0.0,0.0,0.0,0.0,1418.0,-0.003141592653589793,1500.0,0.0,0.0,25.861456999999998,0.0,1500.0,-0.0024434609527920616,-14.0,1572.0,0.0,5.0,1604.0,1495.0,5.0,11.870000000000001,1500.0,0.0,0.03816663473844528,0.0,0.011757681146264076,13.0,457.0,150.0,0.0,2.461786909938002,1000.0,-0.13907456398010254,51.459438999999996,-0.0012217304763960308,0.0,-9.670421600341797,0.2712690830230713,0.3512515127658844,-2.0,25.900965,1.5016344785690308,1.0,601.2265243530273,0.0020943951023931952,0.06632251157578453,,,,,,,
4.399906999999999,-2.7912954,0.0,0.02514243684709072,0.0,0.0,0.0,0.0,1418.0,-0.003141592653589793,1500.0,0.0,0.0,25.981458,0.0,1500.0,-0.0024434609527920616,-14.0,1572.0,0.0,5.0,1605.0,1494.0,5.0,11.82,1500.0,0.0,0.03811528906226158,0.0,0.010927649214863777,13.0,457.0,150.0,0.0,2.4621359757884007,1000.0,-0.13960398733615875,51.4594388,-0.0012217304763960308,0.0,-9.651437759399414,0.09607446193695068,0.39538756012916565,-2.0,26.000915,1.5135358572006226,1.0,600.7569808959961,0.0020943951023931952,0.06632251157578453,,,,,,,
4.499948999999997,-2.7912954,0.0,0.023091984912753105,0.0,0.0,0.0,0.0,1417.0,-0.003141592653589793,1500.0,0.0,0.0,26.061951999999998,0.0,1500.0,-0.0022689280275926286,-14.0,1572.0,0.0,5.0,1605.0,1495.0,5.0,11.82,1500.0,0.0,0.03621380403637886,0.0,0.009694412350654602,13.0,457.0,150.0,0.0,2.4624850416387996,1000.0,-0.14061550796031952,51.4594388,-0.0010471975511965976,0.0,-9.651586532592773,0.19214892387390137,0.378734290599823,-2.0,26.100956999999998,1.4959588050842285,1.0,600.7569808959961,0.0019198621771937625,0.06632251157578453,,,,,,,
4.599930999999998,-2.7912958999999997,0.0,0.02085111476480961,0.0,0.0,0.0,0.0,1418.0,-0.003141592653589793,1500.0,0.0,0.0,26.18148,0.0,1500.0,-0.0019198621771937625,-14.0,1572.0,0.0,5.0,1605.0,1494.0,5.0,11.76,1500.0,0.0,0.03560485318303108,0.0,0.007981757633388042,13.0,457.0,150.0,0.0,2.462834107489199,1000.0,-0.1418342888355255,51.4594387,-0.0010471975511965976,0.0,-9.653419494628906,0.08194586634635925,0.3825174570083618,-2.0,26.200938999999998,1.5121147632598877,1.0,600.2160873413086,0.0019198621771937625,0.06632251157578453,,,,,,,
4.699919999999999,-2.7912958999999997,0.0,0.02018926665186882,0.0,0.0,0.0,0.0,1418.0,-0.003141592653589793,1500.0,0.0,0.0,26.261419,0.0,1500.0,-0.0017453292519943296,-14.0,1572.0,0.0,5.0,1605.0,1494.0,5.0,11.76,1500.0,0.0,0.0350102037191391,0.0,0.00727660208940506,13.0,457.0,150.0,0.0,2.463008640414398,1000.0,-0.14212553203105927,51.4594387,-0.0010471975511965976,0.0,-9.65463638305664,0.06781727075576782,0.3887108564376831,-2.0,26.300928,1.5008455514907837,1.0,600.2160873413086,0.0019198621771937625,0.06632251157578453,,,,,,,
4.799910999999998,-2.7912965,0.0,0.018906690180301666,0.0,0.0,0.0,0.0,1418.0,-0.0029670597283903604,1500.0,0.0,0.0,26.381435999999997,0.0,1500.0,-0.0017453292519943296,-14.0,1572.0,0.0,5.0,1604.0,1495.0,5.0,11.700000000000001,1500.0,0.0,0.034021180123090744,0.0,0.007189030293375254,13.0,457.0,150.0,0.0,2.463357706264797,1000.0,-0.13984555006027222,51.459438399999996,-0.0010471975511965976,0.0,-9.653060913085938,0.05086295306682587,0.37727296352386475,-2.0,26.400919,1.4930490255355835,1.0,600.0960311889648,0.0019198621771937625,0.0661479786505851,,,,,,,
4.8999539999999975,-2.7912965,0.0,0.018192199990153313,0.0,0.0,0.0,0.0,1418.0,-0.0029670597283903604,1500.0,0.0,0.0,26.461420999999998,0.0,1500.0,-0.0017453292519943296,-14.0,1572.0,0.0,5.0,1604.0,1495.0,5.0,11.700000000000001,1500.0,0.0,0.033525027334690094,0.0,0.008505201898515224,13.0,457.0,150.0,0.0,2.463532239189996,1000.0,-0.13662350177764893,51.459438399999996,-0.0010471975511965976,0.0,-9.658875465393066,0.11302877962589264,0.3979073464870453,-2.0,26.500961999999998,1.507361650466919,1.0,600.2160873413086,0.0019198621771937625,0.0661479786505851,,,,,,,
5.000382999999999,-2.7912971,0.0,0.014696662314236164,0.0,0.0,0.0,0.0,1418.0,-0.0029670597283903604,1500.0,0.0,0.0,26.582594,0.0,1500.0,-0.0012217304763960308,-14.0,1572.0,0.0,5.0,1605.0,1494.0,5.0,11.620000000000001,1500.0,0.0,0.030598796904087067,0.0,0.010386464186012745,13.0,457.0,150.0,0.0,2.4638813050403954,1000.0,-0.13104580342769623,51.4594381,-0.0010471975511965976,0.0,-9.662216186523438,0.09607446193695068,0.34587526321411133,-2.0,26.601391,1.4966884851455688,1.0,600.2160873413086,0.0017453292519943296,0.0661479786505851,,,,,,,
5.100003999999998,-2.7912971,0.0,0.016012877225875854,0.0,0.0,0.0,0.0,1417.0,-0.0029670597283903604,1500.0,0.0,0.0,26.661987999999997,0.0,1500.0,-0.0008726646259971648,-14.0,1572.0,0.0,5.0,1605.0,1495.0,5.0,11.620000000000001,1500.0,0.0,0.031533367931842804,0.0,0.011364131234586239,13.0,457.0,150.0,0.0,2.4640558379655944,1000.0,-0.12753641605377197,51.4594381,-0.0010471975511965976,0.0,-9.652289390563965,0.29104912281036377,0.38528528809547424,-2.0,26.701012,1.5184564590454102,1.0,749.9062957763672,0.0017453292519943296,0.0661479786505851,,,,,,,
5.199945,-2.7912977,0.0,0.013866503722965717,0.0,0.0,0.0,0.0,1418.0,-0.0029670597283903604,1500.0,0.0,0.0,26.781605,0.0,1500.0,-0.0010471975511965976,-14.0,1572.0,0.0,5.0,1605.0,1494.0,5.0,11.56,1500.0,0.0,0.02843485213816166,0.0,0.011617387644946575,13.0,457.0,150.0,0.0,2.4642303708907938,1000.0,-0.12622055411338806,51.459437799999996,-0.0010471975511965976,0.0,-9.671797752380371,0.22040612995624542,0.371695876121521,-2.0,26.800953,1.4905850887298584,1.0,600.2160873413086,0.0017453292519943296,0.0661479786505851,,,,,,,
5.299961,-2.7912977,0.0,0.013824105262756348,0.0,0.0,0.0,0.0,1418.0,-0.0029670597283903604,1500.0,0.0,0.0,26.861324999999997,0.0,1500.0,-0.0010471975511965976,-14.0,1572.0,0.0,5.0,1605.0,1494.0,5.0,11.56,1500.0,0.0,0.028419556096196175,0.0,0.00976955983787775,13.0,457.0,150.0,0.0,2.4644049038159936,1000.0,-0.12865154445171356,51.459437799999996,-0.0010471975511965976,0.0,-9.669126510620117,0.30800342559814453,0.38172146677970886,-2.0,26.900969,1.5003554821014404,1.0,642.5909423828125,0.0017453292519943296,0.06597344572538566,,,,,,,
5.3999989999999976,-2.7912984,0.0,0.011918428353965282,0.0,0.0,0.0,0.0,1418.0,-0.0029670597283903604,1500.0,0.0,0.0,26.981599,0.0,1500.0,-0.0008726646259971648,-14.0,1572.0,0.0,5.0,1604.0,1495.0,5.0,11.49,1500.0,0.0,0.026622721925377846,0.0,0.005440735258162022,13.0,457.0,150.0,0.0,2.464579436741193,1000.0,-0.13623861968517303,51.4594376,-0.0010471975511965976,0.0,-9.662306785583496,0.11302877962589264,0.4046410620212555,-2.0,27.001006999999998,1.4880925416946411,1.0,600.2160873413086,0.0017453292519943296,0.06597344572538566,,,,,,,
5.499972,-2.7912984,0.0,0.011378773488104343,0.0,0.0,0.0,0.0,1418.0,-0.0029670597283903604,1500.0,0.0,0.0,27.061933,0.0,1500.0,-0.0006981317007977319,-14.0,1572.0,0.0,5.0,1604.0,1495.0,5.0,11.49,1500.0,0.0,0.025212692096829414,0.0,0.0033233221620321274,13.0,457.0,150.0,0.0,2.464579436741193,1000.0,-0.14148351550102234,51.4594376,-0.0010471975511965976,0.0,-9.6726655960083,0.09324874728918076,0.36277854442596436,-2.0,27.10098,1.48274564743042,1.0,640.4099044799805,0.0017453292519943296,0.06597344572538566,,,,,,,
5.5999719999999975,-2.791299,0.0,0.010518467985093594,0.0,0.0,0.0,0.0,1418.0,-0.0027925268031909274,1500.0,0.0,0.0,27.181641,0.0,1500.0,-0.0005235987755982988,-14.0,1571.0,0.0,5.0,1605.0,1495.0,5.0,11.44,1500.0,0.0,0.02407342568039894,0.0,0.0023116236552596092,13.0,457.0,150.0,0.0,2.4649285025915915,1000.0,-0.1455848515033722,51.4594373,-0.0010471975511965976,0.0,-9.671520233154297,0.09042302519083023,0.3955990672111511,-2.0,27.200979999999998,1.499584674835205,1.0,640.4099044799805,0.0015707963267948964,0.06597344572538566,,,,,,,
5.699969999999997,-2.791299,0.0,0.010431020520627499,0.0,0.0,0.0,0.0,1417.0,-0.0027925268031909274,1500.0,0.0,0.0,27.261445,0.0,1500.0,-0.00034906585039886593,-14.0,1572.0,0.0,5.0,1605.0,1495.0,5.0,11.44,1500.0,0.0,0.023649748414754868,0.0,0.0017331502167508006,13.0,457.0,150.0,0.0,2.4651030355167913,1000.0,-0.14617185294628143,51.4594373,-0.0010471975511965976,0.0,-9.667510986328125,0.20345181226730347,0.37800806760787964,-2.0,27.300977999999997,1.5068880319595337,1.0,640.4099044799805,0.0015707963267948964,0.06579891280018622,,,,,,,
5.7999469999999995,-2.7912993999999998,0.0,0.009104335680603981,0.0,0.0,0.0,0.0,1418.0,-0.0027925268031909274,1500.0,0.0,0.0,27.381581999999998,0.0,1500.0,0.0,-14.0,1572.0,0.0,5.0,1605.0,1494.0,5.0,11.38,1500.0,0.0,0.021279238164424896,0.0,0.0017745810328051448,13.0,457.0,150.0,0.0,2.4651030355167913,1000.0,-0.147001251578331,51.459437099999995,-0.0010471975511965976,0.0,-9.648574829101562,0.1525888592004776,0.38002631068229675,-2.0,27.400955,1.5078480243682861,1.0,600.2160873413086,0.0015707963267948964,0.06579891280018622,,,,,,,
5.899965999999999,-2.7912993999999998,0.0,0.009529625996947289,0.0,0.0,0.0,0.0,1418.0,-0.002617993877991494,1500.0,0.0,0.0,27.461465,0.0,1500.0,0.00017453292519943296,-14.0,1572.0,0.0,5.0,1605.0,1494.0,5.0,11.38,1500.0,0.0,0.021108027547597885,0.0,0.0012119602179154754,13.0,457.0,150.0,0.0,2.4652775684419903,1000.0,-0.14811615645885468,51.459437099999995,-0.0010471975511965976,0.0,-9.56810474395752,0.11020306497812271,0.2848062217235565,-2.0,27.500974,1.5218544006347656,1.0,640.4099044799805,0.0015707963267948964,0.06579891280018622,,,,,,,
5.999990999999998,-2.7912996,0.0,0.007712812162935734,0.0,0.0,0.0,0.0,1418.0,-0.002617993877991494,1500.0,0.0,0.0,27.581996999999998,0.0,1500.0,0.0,-14.0,1572.0,0.0,5.0,1604.0,1495.0,5.0,11.35,1500.0,0.0,0.017576057463884354,0.0,0.0018597182352095842,13.0,457.0,150.0,0.0,2.4652775684419903,1000.0,-0.1486455798149109,51.459437,-0.0010471975511965976,0.0,-9.620019912719727,0.03673435375094414,0.4009455144405365,-2.0,27.600998999999998,1.5387061834335327,1.0,600.2160873413086,0.0015707963267948964,0.06579891280018622,,,,,,,
6.099979999999999,-2.7912996,0.0,0.008012787438929081,0.0,0.0,0.0,0.0,1418.0,-0.002617993877991494,1500.0,0.0,0.0,27.661953,0.0,1500.0,0.0005235987755982988,-14.0,1572.0,0.0,5.0,1604.0,1495.0,5.0,11.35,1500.0,0.0,0.01925031654536724,0.0,0.0008546422468498349,13.0,457.0,150.0,0.0,2.4651030355167913,1000.0,-0.14699938893318176,51.459437,-0.0010471975511965976,0.0,-9.657455444335938,0.04803723096847534,0.3872758448123932,-2.0,27.700988,1.4852781295776367,1.0,600.2160873413086,0.0015707963267948964,0.0656243798749868,,,,,,,
6.199976999999997,-2.7912999,0.0,0.006506739649921656,0.0,0.0,0.0,0.0,1418.0,-0.0024434609527920616,1500.0,0.0,0.0,27.781578999999997,0.0,1500.0,0.00017453292519943296,-14.0,1571.0,0.0,5.0,1605.0,1495.0,5.0,11.33,1500.0,0.0,0.017462322488427162,0.0,0.003912605810910463,13.0,457.0,150.0,0.0,2.4651030355167913,1000.0,-0.1414235532283783,51.4594368,-0.0010471975511965976,0.0,-9.68656063079834,0.21192896366119385,0.39898309111595154,-2.0,27.800984999999997,1.4863007068634033,1.0,600.0960311889648,0.0015707963267948964,0.0656243798749868,,,,,,,
6.299968999999997,-2.7912999,0.0,0.00885689351707697,0.0,0.0,0.0,0.0,1417.0,-0.0024434609527920616,1500.0,0.0,0.0,27.861445,0.0,1500.0,0.00034906585039886593,-14.0,1572.0,0.0,5.0,1605.0,1495.0,5.0,11.33,1500.0,0.0,0.018519533798098564,0.0,0.005406257696449757,13.0,457.0,150.0,0.0,2.4651030355167913,1000.0,-0.1386515498161316,51.4594368,-0.0010471975511965976,0.0,-9.681352615356445,0.1751946061849594,0.44632405042648315,-2.0,27.900976999999997,1.4838138818740845,1.0,600.0960311889648,0.0015707963267948964,0.0656243798749868,,,,,,,
6.399941999999999,-2.7913002,0.0,0.008512749336659908,0.0,0.0,0.0,0.0,1418.0,-0.0024434609527920616,1500.0,0.0,0.0,27.981589,0.0,1500.0,0.0005235987755982988,-14.0,1572.0,0.0,5.0,1605.0,1494.0,5.0,11.290000000000001,1500.0,0.0,0.017375491559505463,0.0,0.006343561690300703,13.0,457.0,150.0,0.0,2.4649285025915915,1000.0,-0.1374506950378418,51.4594367,-0.0010471975511965976,0.0,-9.660417556762695,0.18932320177555084,0.33431267738342285,-2.0,28.00095,1.5252373218536377,1.0,600.0239868164062,0.0013962634015954637,0.06544984694978735,,,,,,,
6.499970999999999,-2.7913002,0.0,0.0077743749134242535,0.0,0.0,0.0,0.0,1418.0,-0.0022689280275926286,1500.0,0.0,0.0,28.061937999999998,0.0,1500.0,0.0,-14.0,1572.0,0.0,5.0,1605.0,1494.0,5.0,11.290000000000001,1500.0,0.0,0.017276499420404434,0.0,0.003602386452257633,13.0,457.0,150.0,0.0,2.4651030355167913,1000.0,-0.137943834066391,51.4594367,-0.0010471975511965976,0.0,-9.574572563171387,0.14411169290542603,0.40110331773757935,-2.0,28.100979,1.5806995630264282,1.0,600.0239868164062,0.0013962634015954637,0.06544984694978735,,,,,,,
6.599957999999997,-2.7913003,0.0,0.009933431632816792,0.0,0.0,0.0,0.0,1418.0,-0.0022689280275926286,1500.0,0.0,0.0,28.181431999999997,0.0,1500.0,0.0005235987755982988,-14.0,1572.0,0.0,5.0,1604.0,1495.0,5.0,11.25,1500.0,0.0,0.013477051630616188,0.0,0.008621039800345898,13.0,457.0,150.0,0.0,2.4649285025915915,1000.0,-0.13916058838367462,51.4594367,-0.0010471975511965976,0.0,-9.634880065917969,0.045211512595415115,0.31473246216773987,-2.0,28.200965999999998,1.4838653802871704,1.0,600.0239868164062,0.0013962634015954637,0.0651007810993885,,,,,,,
6.699994999999998,-2.7913003,0.0,0.005934733431786299,0.0,0.0,0.0,0.0,1418.0,-0.0022689280275926286,1500.0,0.0,0.0,28.261433999999998,0.0,1500.0,-0.00017453292519943296,-14.0,1572.0,0.0,5.0,1604.0,1495.0,5.0,11.25,1500.0,0.0,0.015226508490741253,0.0,0.0052333916537463665,13.0,457.0,150.0,0.0,2.4649285025915915,1000.0,-0.13839368522167206,51.4594367,-0.0010471975511965976,0.0,-9.467700958251953,0.11868022382259369,0.5936076045036316,-2.0,28.301002999999998,1.638505220413208,1.0,600.3361968994141,0.0013962634015954637,0.06492624817418906,,,,,,,
6.799986999999998,-2.7913004999999997,0.0,0.00953076034784317,0.0,0.0,0.0,0.0,1418.0,-0.0022689280275926286,1500.0,0.0,0.0,28.38166,0.0,1500.0,0.003141592653589793,-14.0,1571.0,0.0,5.0,1605.0,1495.0,5.0,11.22,1500.0,0.0,0.014809099957346916,0.0,0.007644436322152615,13.0,444.0,197.0,0.0,2.4644049038159936,1001.0,-0.13502401113510132,51.4594367,-0.0010471975511965976,0.0,-9.843389511108398,0.19214892387390137,0.1660962998867035,-3.0,28.400994999999998,1.394202470779419,1.0,600.3361968994141,0.0013962634015954637,0.06440264939859076,,,,,,,
6.899964999999998,-2.7913004999999997,0.0,0.013274120166897774,0.0,0.0,0.0,0.0,1417.0,-0.0020943951023931952,1500.0,0.0,0.0,28.461464,0.0,1500.0,0.0,-14.0,1572.0,0.0,5.0,1605.0,1495.0,5.0,11.22,1500.0,0.0,0.017648769542574883,0.0,-0.002906935289502144,13.0,444.0,197.0,0.0,2.464753969666392,1000.0,-0.13446731865406036,51.4594367,-0.0010471975511965976,0.0,-9.55079460144043,0.04803723096847534,0.7562357187271118,-3.0,28.500973,1.38912034034729,1.0,642.7148971557617,0.0013962634015954637,0.06440264939859076,,,,,,,
6.999998999999999,-2.7913007999999997,0.0,0.011272517032921314,0.0,-0.011131884530186653,0.0,0.0,1418.0,-0.0020943951023931952,1500.0,0.0,0.0,28.582036,-0.02080778405070305,1500.0,0.004014257279586958,-14.0,1572.0,0.0,5.0,1605.0,1494.0,5.0,11.16,1500.0,0.0,0.014626680873334408,0.0,0.0077141933143138885,13.0,444.0,197.0,0.0,2.4642303708907938,1000.0,-0.13362105190753937,51.4594366,-0.0010471975511965976,0.0,-9.83415412902832,0.09324874728918076,-0.1969706118106842,-3.0,28.601007,1.3026187419891357,1.0,642.7148971557617,0.0013962634015954637,0.06475171524898962,,,,,,,
7.099998999999997,-2.7913007999999997,0.0,0.018190568313002586,0.0,-0.011131884530186653,0.0,0.0,1418.0,-0.0020943951023931952,1500.0,0.0,0.0,28.661970999999998,-0.02080778405070305,1500.0,-0.0012217304763960308,-14.0,1572.0,0.0,5.0,1605.0,1494.0,5.0,11.16,1500.0,0.0,0.0145846763625741,0.0,0.00678292429074645,13.0,444.0,197.0,0.0,2.4649285025915915,1000.0,-0.1314476579427719,51.4594366,-0.0010471975511965976,0.0,-9.579782485961914,0.12433166056871414,0.7164531350135803,-3.0,28.701006999999997,1.3674653768539429,1.0,642.7148971557617,0.0013962634015954637,0.06492624817418906,,,,,,,
7.199973999999997,-2.7913011,0.0,-0.0008007328724488616,0.0,-0.022263769060373306,0.0,0.0,1418.0,-0.0020943951023931952,1500.0,0.0,0.0,28.781589999999998,-0.0416155681014061,1500.0,0.0015707963267948964,-14.0,1572.0,0.0,5.0,1604.0,1495.0,5.0,11.09,1500.0,0.0,0.001580062322318554,0.0,0.009819289669394493,13.0,444.0,197.0,0.0,2.4644049038159936,1000.0,-0.12777215242385864,51.459436499999995,-0.0010471975511965976,0.0,-9.846407890319824,0.09042302519083023,0.27096885442733765,-3.0,28.800981999999998,1.5670645236968994,1.0,640.2321701049805,0.0013962634015954637,0.06440264939859076,,,,,,,
7.299948999999998,-2.7913011,0.0,0.00663261441513896,0.0,-0.022263769060373306,0.0,0.0,1418.0,-0.0019198621771937625,1500.0,0.0,0.0,28.861452999999997,-0.0416155681014061,1500.0,0.004886921905584123,-14.0,1572.0,0.0,5.0,1604.0,1495.0,5.0,11.09,1500.0,0.0,-0.0001744547043927014,0.0,0.012543476186692715,13.0,444.0,197.0,0.0,2.4640558379655944,1000.0,-0.12546782195568085,51.459436499999995,-0.0010471975511965976,0.0,-9.834674835205078,-0.005651439074426889,0.1709023416042328,-3.0,28.900957,1.314371109008789,1.0,642.7148971557617,0.0013962634015954637,0.06422811647339133,,,,,,,
7.3999939999999995,-2.7913015,0.0,0.01656257174909115,0.0,-0.03339565545320511,0.0,0.0,1418.0,-0.0019198621771937625,1500.0,0.0,0.0,28.981610999999997,-0.06935927271842957,1500.0,0.004537856055185257,-14.0,1571.0,0.0,5.0,1605.0,1495.0,5.0,11.05,1500.0,0.0,0.012718088924884796,0.0,0.011617306619882584,13.0,444.0,197.0,0.0,2.4638813050403954,1001.0,-0.11965447664260864,51.459436399999994,-0.0010471975511965976,0.0,-9.440546035766602,0.12715737521648407,0.234805628657341,-3.0,29.001002,1.5671807527542114,1.0,640.2321701049805,0.0013962634015954637,0.06370451769779303,,,,,,,
7.499927999999997,-2.7913015,0.0,0.008766072802245617,0.0,-0.03339565545320511,0.0,0.0,1417.0,-0.0019198621771937625,1500.0,0.0,0.0,29.061942,-0.06935927271842957,1500.0,0.0017453292519943296,-14.0,1572.0,0.0,5.0,1605.0,1495.0,5.0,11.05,1500.0,0.0,0.013205176219344139,0.0,0.005878759548068047,13.0,444.0,197.0,0.0,2.4640558379655944,1000.0,-0.11545412242412567,51.459436399999994,-0.0010471975511965976,0.0,-9.762378692626953,0.03390863537788391,0.3456689119338989,-3.0,29.100935999999997,1.561341404914856,1.0,642.7148971557617,0.0013962634015954637,0.06335545184739416,,,,,,,
7.599968999999998,-2.7913018999999997,0.0,0.0047933682799339294,0.0,-0.03339565545320511,0.0,0.0,1418.0,-0.0019198621771937625,1500.0,0.0,0.0,29.181625,-0.09710298478603363,1500.0,0.0029670597283903604,-14.0,1572.0,0.0,5.0,1605.0,1494.0,5.0,11.0,1500.0,0.0,0.006780607625842094,0.0,0.006694437004625797,13.0,444.0,197.0,0.0,2.4640558379655944,1000.0,-0.10994086414575577,51.459436399999994,-0.0010471975511965976,0.0,-9.764385223388672,0.10455162078142166,0.14160752296447754,-3.0,29.200976999999998,1.1797277927398682,1.0,642.7148971557617,0.0012217304763960308,0.06318091892219473,,,,,,,
7.6999749999999985,-2.7913018999999997,0.0,0.014503615908324718,0.0,-0.03339565545320511,0.0,0.0,1418.0,-0.0019198621771937625,1500.0,0.0,0.0,29.261436999999997,-0.09710298478603363,1500.0,0.0005235987755982988,-14.0,1572.0,0.0,5.0,1605.0,1494.0,5.0,11.0,1500.0,0.0,0.011649249121546745,0.0,0.00723116472363472,13.0,444.0,197.0,0.0,2.4642303708907938,1000.0,-0.1061956062912941,51.459436399999994,-0.0010471975511965976,0.0,-9.509190559387207,0.07064298540353775,0.5172984600067139,-3.0,29.300983,1.515542984008789,1.0,642.7148971557617,0.0012217304763960308,0.06335545184739416,,,,,,,
7.799959999999999,-2.7913022,0.0,0.012577648274600506,0.0,-0.03339565545320511,0.0,0.0,1418.0,-0.0017453292519943296,1500.0,0.0,0.0,29.381591,-0.11791076511144638,1500.0,0.0,-14.0,1572.0,0.0,5.0,1604.0,1495.0,5.0,10.94,1500.0,0.0,0.012946510687470436,0.0,0.008602161891758442,13.0,444.0,197.0,0.0,2.4642303708907938,1000.0,-0.10129404813051224,51.459436399999994,-0.0010471975511965976,0.0,-9.481040954589844,0.04803723096847534,0.4453638195991516,-3.0,29.400968,1.4765479564666748,1.0,640.2321701049805,0.0012217304763960308,0.06335545184739416,,,,,,,
7.899975999999999,-2.7913022,0.0,0.012063835747539997,0.0,-0.03339565545320511,0.0,0.0,1418.0,-0.0017453292519943296,1500.0,0.0,0.0,29.461408,-0.11791076511144638,1500.0,-0.002617993877991494,-14.0,1572.0,0.0,5.0,1604.0,1495.0,5.0,10.94,1500.0,0.0,0.01105653028935194,0.0,0.012693535536527634,13.0,444.0,197.0,0.0,2.4644049038159936,1000.0,-0.09742520749568939,51.459436399999994,-0.0010471975511965976,0.0,-9.546390533447266,0.08477158844470978,0.6987755298614502,-3.0,29.500984,1.655394196510315,1.0,640.2321701049805,0.0012217304763960308,0.06300638599699529,,,,,,,
7.999979,-2.7913026999999997,0.0,0.007630497217178345,0.0,-0.04452753812074661,0.0,0.0,1417.0,-0.0017453292519943296,1500.0,0.0,0.0,29.582020999999997,-0.15259040892124176,1501.0,-0.00034906585039886593,-14.0,1571.0,0.0,5.0,1605.0,1495.0,5.0,10.870000000000001,1500.0,0.0,0.007687870413064957,0.0,0.01364179328083992,14.0,444.0,197.0,0.0,2.4640558379655944,1001.0,-0.09214888513088226,51.4594363,-0.0010471975511965976,0.0,-9.677522659301758,0.11585450172424316,0.2629290521144867,-3.0,29.600987,1.4418236017227173,1.0,600.3361968994141,0.0012217304763960308,0.06300638599699529,,,,,,,
8.100023,-2.7913026999999997,0.0,0.010586162097752094,0.0,-0.04452753812074661,0.0,0.0,1417.0,-0.0017453292519943296,1500.0,0.0,0.0,29.66202,-0.15259040892124176,1500.0,-0.0012217304763960308,-14.0,1572.0,0.0,5.0,1605.0,1495.0,5.0,10.870000000000001,1500.0,0.0,0.0053643458522856236,0.0,0.013379906304180622,14.0,444.0,197.0,0.0,2.4642303708907938,1000.0,-0.08960606902837753,51.4594363,-0.0010471975511965976,0.0,-9.796815872192383,0.10172590613365173,0.4866768419742584,-3.0,29.701031,1.377532958984375,1.0,600.3361968994141,0.0012217304763960308,0.06300638599699529,,,,,,,
8.199955999999997,-2.7913031999999998,0.0,-0.011883972212672234,0.0,-0.055659420788288116,0.0,0.0,1418.0,-0.0017453292519943296,1500.0,0.0,0.0,29.781602,-0.18727004528045654,1500.0,0.0017453292519943296,-14.0,1572.0,0.0,5.0,1605.0,1494.0,5.0,10.790000000000001,1500.0,0.0,-0.002894832519814372,0.0,0.003093115519732237,14.0,444.0,197.0,0.0,2.4640558379655944,1000.0,-0.08754341304302216,51.4594362,-0.0010471975511965976,0.0,-9.811845779418945,0.16106601059436798,0.398188978433609,-3.0,29.800963999999997,1.3627891540527344,1.0,600.1200637817383,0.0012217304763960308,0.0635299847725936,,,,,,,
8.299964999999997,-2.7913031999999998,0.0,0.003197135403752327,0.0,-0.055659420788288116,0.0,0.0,1418.0,-0.0017453292519943296,1500.0,0.0,0.0,29.861427,-0.18727004528045654,1500.0,0.005934119456780721,-14.0,1572.0,0.0,5.0,1605.0,1494.0,5.0,10.790000000000001,1500.0,0.0,0.010427714325487614,0.0,0.004291033837944269,14.0,444.0,197.0,0.0,2.4640558379655944,1000.0,-0.0880657508969307,51.4594362,-0.0010471975511965976,0.0,-9.587545394897461,0.2938748300075531,-0.37225931882858276,-3.0,29.900972999999997,1.6273486614227295,1.0,600.1200637817383,0.0012217304763960308,0.06440264939859076,,,,,,,
8.399940999999998,-2.7913037999999997,0.0,0.020266564562916756,0.0,-0.06679131090641022,0.0,0.0,1418.0,-0.0017453292519943296,1500.0,0.0,0.0,29.981481,-0.22888560593128204,1500.0,-0.0022689280275926286,-14.0,1572.0,0.0,5.0,1604.0,1495.0,5.0,10.73,1500.0,0.0,0.018394464626908302,0.0,0.011138572357594967,14.0,444.0,197.0,0.0,2.464579436741193,1000.0,-0.09201794117689133,51.4594361,-0.0010471975511965976,0.0,-9.400294303894043,-0.016954317688941956,0.24535256624221802,-3.0,30.000949,1.712915301322937,1.0,600.1200637817383,0.0012217304763960308,0.0645771823237902,,,,,,,
8.499893999999998,-2.7913037999999997,0.0,0.005349175073206425,0.0,-0.06679131090641022,0.0,0.0,1418.0,-0.0017453292519943296,1500.0,0.0,0.0,30.061909,-0.22888560593128204,1500.0,0.0,-14.0,1572.0,0.0,5.0,1604.0,1495.0,5.0,10.73,1500.0,0.0,0.003414793638512492,0.0,0.012394852004945278,14.0,444.0,197.0,0.0,2.4642303708907938,1000.0,-0.09384868294000626,51.4594361,-0.0010471975511965976,0.0,-9.544075965881348,0.016954317688941956,-0.19453740119934082,-3.0,30.100901999999998,1.6027244329452515,1.0,601.7088851928711,0.0012217304763960308,0.06440264939859076,,,,,,,
8.599920999999998,-2.7913042999999997,0.0,0.0033583035692572594,0.0,-0.07792319357395172,0.0,0.0,1417.0,-0.0017453292519943296,1500.0,0.0,0.0,30.181494999999998,-0.2635652422904968,1501.0,-0.005934119456780721,-14.0,1572.0,0.0,5.0,1605.0,1495.0,5.0,10.65,1500.0,0.0,0.001982710789889097,0.0,0.015317568555474281,13.0,444.0,197.0,0.0,2.464579436741193,1000.0,-0.09182234108448029,51.459436,-0.0010471975511965976,0.0,-9.87037467956543,0.0875973030924797,1.014293909072876,-3.0,30.200929,1.1358698606491089,1.0,601.7088851928711,0.0012217304763960308,0.06370451769779303,,,,,,,
8.700064999999999,-2.7913042999999997,0.0,-0.00046624953392893076,0.0,-0.07792319357395172,0.0,0.0,1417.0,-0.0015707963267948964,1500.0,0.0,0.0,30.261419,-0.2635652422904968,1500.0,-0.0006981317007977319,-14.0,1572.0,0.0,5.0,1605.0,1495.0,5.0,10.65,1500.0,0.0,-0.013942321762442589,0.0,0.02299700677394867,13.0,444.0,197.0,0.0,2.4642303708907938,1000.0,-0.09008309245109558,51.459436,-0.0010471975511965976,0.0,-9.951519966125488,-0.02825719490647316,0.33323153853416443,-3.0,30.301073,1.398181676864624,1.0,601.7088851928711,0.0012217304763960308,0.06370451769779303,,,,,,,
8.799886999999998,-2.7913047,0.0,-0.0010476462775841355,0.0,-0.10018695890903473,0.0,0.0,1418.0,-0.0015707963267948964,1500.0,0.0,0.0,30.38152,-0.2913089692592621,1500.0,0.004886921905584123,-14.0,1572.0,0.0,5.0,1605.0,1494.0,5.0,10.57,1500.0,0.0,-0.007681931369006634,0.0,0.01686130091547966,13.0,444.0,197.0,0.0,2.4638813050403954,1000.0,-0.08537067472934723,51.459435799999994,-0.0010471975511965976,0.0,-9.31439208984375,0.19214892387390137,0.10270075500011444,-3.0,30.400895,1.5697016716003418,1.0,600.3121643066406,0.0012217304763960308,0.06335545184739416,,,,,,,
8.899912999999998,-2.7913047,0.0,0.007360915653407574,0.0,-0.10018695890903473,0.0,0.0,1418.0,-0.0015707963267948964,1500.0,0.0,0.0,30.461266,-0.2913089692592621,1500.0,0.006457718232379019,-14.0,1572.0,0.0,5.0,1605.0,1494.0,5.0,10.57,1500.0,0.0,0.005771244876086712,0.0,0.010902238078415394,13.0,444.0,197.0,0.0,2.4638813050403954,1000.0,-0.08276177197694778,51.459435799999994,-0.0010471975511965976,0.0,-9.597904205322266,0.025431476533412933,0.29684239625930786,-3.0,30.500920999999998,1.7245522737503052,1.0,600.3121643066406,0.0012217304763960308,0.06300638599699529,,,,,,,
8.999987999999998,-2.7913050999999998,0.0,0.008875063620507717,0.0,-0.11131884157657623,0.0,0.0,1418.0,-0.0015707963267948964,1500.0,0.0,0.0,30.581985999999997,-0.31905263662338257,1500.0,0.004014257279586958,-14.0,1572.0,0.0,5.0,1604.0,1495.0,5.0,10.52,1500.0,0.0,0.006949492264539003,0.0,0.006417825352400541,14.0,444.0,197.0,0.0,2.4642303708907938,1000.0,-0.0807977095246315,51.4594357,-0.0010471975511965976,0.0,-9.869020462036133,0.20910324156284332,0.3975253999233246,-3.0,30.600996,1.3656797409057617,1.0,600.1200637817383,0.0012217304763960308,0.06318091892219473,,,,,,,
9.099946,-2.7913050999999998,0.0,0.011096738278865814,0.0,-0.11131884157657623,0.0,0.0,1418.0,-0.0015707963267948964,1500.0,0.0,0.0,30.661928,-0.31905263662338257,1500.0,0.0033161255787892262,-14.0,1572.0,0.0,5.0,1604.0,1495.0,5.0,10.52,1500.0,0.0,0.006501588970422745,0.0,0.0053348662331700325,14.0,444.0,197.0,0.0,2.4642303708907938,1000.0,-0.08098737895488739,51.4594357,-0.0010471975511965976,0.0,-9.688759803771973,0.04803723096847534,-0.08128664642572403,-3.0,30.700954,1.4857897758483887,1.0,600.1200637817383,0.0012217304763960308,0.0635299847725936,,,,,,,
9.199950999999999,-2.7913056,0.0,0.009245562367141247,0.0,-0.12245073169469833,0.0,0.0,1417.0,-0.0013962634015954637,1500.0,0.0,0.0,30.781471999999997,-0.35373231768608093,1501.0,-0.004363323129985824,-14.0,1572.0,0.0,5.0,1605.0,1495.0,5.0,10.46,1500.0,0.0,0.012775124981999397,0.0,0.0011051013134419918,14.0,444.0,197.0,0.0,2.464579436741193,1000.0,-0.08249533176422119,51.4594356,-0.0010471975511965976,0.0,-9.129650115966797,0.0649915486574173,0.924322247505188,-3.0,30.800959,1.8838634490966797,1.0,600.1200637817383,0.0012217304763960308,0.0645771823237902,,,,,,,
9.299895999999997,-2.7913056,0.0,-0.016362998634576797,0.0,-0.12245073169469833,0.0,0.0,1418.0,-0.0013962634015954637,1500.0,0.0,0.0,30.861361,-0.35373231768608093,1500.0,0.0,-14.0,1572.0,0.0,5.0,1604.0,1495.0,5.0,10.46,1500.0,0.0,-0.029664862900972366,0.0,0.03056064434349537,14.0,444.0,197.0,0.0,2.4640558379655944,1000.0,-0.08137506991624832,51.4594356,-0.0010471975511965976,0.0,-10.341846466064453,0.022605756297707558,-0.6945339441299438,-3.0,30.900903999999997,1.471580982208252,1.0,749.0263290405273,0.0012217304763960308,0.06422811647339133,,,,,,,
9.399904,-2.7913059,0.0,0.004259046167135239,0.0,-0.12245073169469833,0.0,0.0,1418.0,-0.0013962634015954637,1500.0,0.0,0.0,30.981582,-0.3745400905609131,1500.0,0.0,-14.0,1572.0,0.0,5.0,1605.0,1494.0,5.0,10.36,1500.0,0.0,-0.0011962486896663904,0.0,0.01972039043903351,14.0,444.0,197.0,0.0,2.4642303708907938,1000.0,-0.07859733700752258,51.4594356,-0.0010471975511965976,0.0,-8.973149299621582,0.07064298540353775,0.8055837750434875,-3.0,31.000912,1.342299222946167,1.0,749.0263290405273,0.0012217304763960308,0.06370451769779303,,,,,,,
9.499934,-2.7913059,0.0,-0.01286046952009201,0.0,-0.12245073169469833,0.0,0.0,1418.0,-0.0013962634015954637,1500.0,0.0,0.0,31.061906999999998,-0.3745400905609131,1500.0,0.007330382858376184,-14.0,1572.0,0.0,5.0,1605.0,1494.0,5.0,10.36,1500.0,0.0,-0.01723218709230423,0.0,-0.0004312199598643929,14.0,444.0,197.0,0.0,2.463357706264797,1000.0,-0.07618967443704605,51.4594356,-0.0010471975511965976,0.0,-9.555154800415039,0.14693741500377655,-0.8571277856826782,-3.0,31.100942,1.7006816864013672,1.0,749.0263290405273,0.0012217304763960308,0.06335545184739416,,,,,,,
9.599926,-2.7913064,0.0,0.023667266592383385,0.0,-0.14471450448036194,0.0,0.0,1418.0,-0.0013962634015954637,1500.0,0.0,0.0,31.181053,-0.4092197120189667,1500.0,-0.003141592653589793,-14.0,1572.0,0.0,5.0,1604.0,1495.0,5.0,10.290000000000001,1500.0,0.0,0.027439042925834656,0.0,-0.002569006523117423,14.0,444.0,197.0,0.0,2.4642303708907938,1000.0,-0.07578478753566742,51.4594354,-0.0010471975511965976,0.0,-9.401690483093262,0.13563454151153564,1.3074958324432373,-3.0,31.200934,1.9660542011260986,1.0,600.8773574829102,0.0012217304763960308,0.06440264939859076,,,,,,,
9.699866999999998,-2.7913064,0.0,-0.020262543112039566,0.0,-0.14471450448036194,0.0,0.0,1418.0,-0.0013962634015954637,1500.0,0.0,0.0,31.26136,-0.4092197120189667,1500.0,0.0006981317007977319,-14.0,1572.0,0.0,5.0,1604.0,1495.0,5.0,10.290000000000001,1500.0,0.0,-0.03313931077718735,0.0,0.019893065094947815,14.0,444.0,197.0,0.0,2.4637067721151955,1000.0,-0.07602862268686295,51.4594354,-0.0010471975511965976,0.0,-9.971646308898926,0.1638917326927185,-0.45514070987701416,-3.0,31.300874999999998,1.3564014434814453,1.0,600.8773574829102,0.0012217304763960308,0.0645771823237902,,,,,,,
9.799909,-2.7913069,0.0,0.0309414304792881,0.0,-0.15584638714790344,0.0,0.0,1417.0,-0.0013962634015954637,1500.0,0.0,0.0,31.380954,-0.44389936327934265,1500.0,0.0008726646259971648,-14.0,1572.0,0.0,5.0,1605.0,1495.0,5.0,10.21,1501.0,0.0,0.016202770173549652,0.0,0.01032341830432415,15.0,444.0,197.0,0.0,2.4637067721151955,1000.0,-0.07800764590501785,51.459435299999996,-0.0010471975511965976,0.0,-9.656879425048828,-0.07912014424800873,0.8401414155960083,-3.0,31.400917,1.5320470333099365,1.0,600.1921081542969,0.0012217304763960308,0.0645771823237902,,,,,,,
9.899915999999997,-2.7913069,0.0,-0.006513155065476894,0.0,-0.15584638714790344,0.0,0.0,1418.0,-0.0013962634015954637,1500.0,0.0,0.0,31.461405,-0.44389936327934265,1500.0,-0.0010471975511965976,-14.0,1572.0,0.0,5.0,1604.0,1495.0,5.0,10.21,1500.0,0.0,-0.015391970984637737,0.0,0.008702880702912807,15.0,444.0,197.0,0.0,2.4638813050403954,1000.0,-0.07783547043800354,51.459435299999996,-0.0010471975511965976,0.0,-9.465437889099121,-0.05086295306682587,0.3634284436702728,-3.0,31.500923999999998,1.5254604816436768,1.0,600.1921081542969,0.0010471975511965976,0.0645771823237902,,,,,,,
9.999927,-2.7913072999999997,0.0,0.024642061442136765,0.0,-0.13358262181282043,0.0,0.0,1418.0,-0.0013962634015954637,1500.0,0.0,0.0,31.58165,-0.4716430604457855,1500.0,0.0024434609527920616,-14.0,1572.0,0.0,5.0,1605.0,1494.0,5.0,10.1,1500.0,0.0,0.015465440228581429,0.0,0.008055862039327621,15.0,444.0,197.0,0.0,2.4637067721151955,1000.0,-0.07300307601690292,51.4594355,-0.0010471975511965976,0.0,-9.59406852722168,0.07912014424800873,0.4148297607898712,-3.0,31.600935,1.6137067079544067,1.0,600.1921081542969,0.0010471975511965976,0.06440264939859076,,,,,,,
10.099943999999997,-2.7913072999999997,0.0,0.002415773691609502,0.0,-0.13358262181282043,0.0,0.0,1418.0,-0.0013962634015954637,1500.0,0.0,0.0,31.662032999999997,-0.4716430604457855,1500.0,-0.0013962634015954637,-14.0,1572.0,0.0,5.0,1605.0,1494.0,5.0,10.1,1500.0,0.0,-0.007850665599107742,0.0,0.011750350706279278,15.0,444.0,197.0,0.0,2.4640558379655944,1000.0,-0.06962474435567856,51.4594355,-0.0010471975511965976,0.0,-9.5479154586792,0.14976313710212708,0.639992892742157,-3.0,31.700951999999997,1.5393158197402954,1.0,600.1921081542969,0.0010471975511965976,0.0645771823237902,,,,,,,
10.199924,-2.7913077,0.0,0.016238030046224594,0.0,-0.13358262181282043,0.0,0.0,1418.0,-0.0012217304763960308,1500.0,0.0,0.0,31.781008,-0.4993867576122284,1500.0,0.003490658503988659,-14.0,1572.0,0.0,5.0,1605.0,1494.0,5.0,10.040000000000001,1500.0,0.0,0.005626734346151352,0.0,0.009803857654333115,14.0,444.0,197.0,0.0,2.4638813050403954,1000.0,-0.06666348874568939,51.4594355,-0.0010471975511965976,0.0,-9.599651336669922,0.0028257195372134447,0.1447005569934845,-3.0,31.800932,1.517134428024292,1.0,600.1320266723633,0.0010471975511965976,0.06440264939859076,,,,,,,
10.299909999999997,-2.7913077,0.0,0.0093658696860075,0.0,-0.13358262181282043,0.0,0.0,1418.0,-0.0012217304763960308,1500.0,0.0,0.0,31.861324999999997,-0.4993867576122284,1500.0,-0.0005235987755982988,-14.0,1572.0,0.0,5.0,1604.0,1495.0,5.0,10.040000000000001,1500.0,0.0,-0.0034071055706590414,0.0,0.013141482137143612,14.0,444.0,197.0,0.0,2.4640558379655944,1000.0,-0.06509614735841751,51.4594355,-0.0010471975511965976,0.0,-9.642278671264648,0.09890018403530121,0.7082809805870056,-3.0,31.900917999999997,1.5127618312835693,1.0,600.1320266723633,0.0010471975511965976,0.06440264939859076,,,,,,,
10.399927999999996,-2.7913083,0.0,0.012811928987503052,0.0,-0.12245073169469833,0.0,0.0,1417.0,-0.0012217304763960308,1500.0,0.0,0.0,31.981012,-0.5410023331642151,1500.0,0.003665191429188092,-14.0,1572.0,0.0,5.0,1605.0,1495.0,5.0,9.97,1501.0,0.0,-0.0008523609722033143,0.0,0.013030488044023514,14.0,444.0,197.0,0.0,2.4637067721151955,1000.0,-0.06250199675559998,51.4594356,-0.0010471975511965976,0.0,-9.696438789367676,0.2514890432357788,0.017806556075811386,-3.0,32.000935999999996,1.433685064315796,1.0,600.1200637817383,0.0010471975511965976,0.06440264939859076,,,,,,,
10.499918999999998,-2.7913083,0.0,0.012464536353945732,0.0,-0.12245073169469833,0.0,0.0,1418.0,-0.0012217304763960308,1500.0,0.0,0.0,32.061901,-0.5410023331642151,1500.0,0.0,-14.0,1572.0,0.0,5.0,1604.0,1495.0,5.0,9.97,1500.0,0.0,-0.0011074469657614827,0.0,0.012929228134453297,14.0,444.0,197.0,0.0,2.4638813050403954,1000.0,-0.06319347023963928,51.4594356,-0.0010471975511965976,0.0,-9.653412818908691,0.031082915142178535,0.7064704298973083,-3.0,32.100927,1.5235748291015625,1.0,600.1200637817383,0.0010471975511965976,0.06440264939859076,,,,,,,
10.599882000000001,-2.7913086,0.0,0.009722212329506874,0.0,-0.11131884157657623,0.0,0.0,1418.0,-0.0012217304763960308,1500.0,0.0,0.0,32.181014999999995,-0.5618101358413696,1500.0,0.0033161255787892262,-14.0,1571.0,0.0,5.0,1605.0,1495.0,5.0,9.93,1500.0,0.0,-0.004204575903713703,0.0,0.012024784460663795,15.0,444.0,197.0,0.0,2.463532239189996,1000.0,-0.06519079953432083,51.4594357,-0.0010471975511965976,0.0,-9.711407661437988,0.011302878148853779,0.007518963888287544,-3.0,32.20089,1.4383116960525513,1.0,600.0600357055664,0.0010471975511965976,0.06440264939859076,,,,,,,
10.699909999999996,-2.7913086,0.0,0.01404572930186987,0.0,-0.11131884157657623,0.0,0.0,1418.0,-0.0012217304763960308,1500.0,0.0,0.0,32.261300999999996,-0.5618101358413696,1500.0,0.0005235987755982988,-14.0,1572.0,0.0,5.0,1605.0,1494.0,5.0,9.93,1500.0,0.0,-0.0002899739774875343,0.0,0.012559542432427406,15.0,444.0,197.0,0.0,2.4637067721151955,1000.0,-0.0649750754237175,51.4594357,-0.0010471975511965976,0.0,-9.653918266296387,0.08477158844470978,0.6516589522361755,-3.0,32.300917999999996,1.5181872844696045,1.0,600.0600357055664,0.0010471975511965976,0.06440264939859076,,,,,,,
10.799948,-2.7913088,0.0,0.007766431197524071,0.0,-0.11131884157657623,0.0,0.0,1418.0,-0.0010471975511965976,1500.0,0.0,0.0,32.381012999999996,-0.5756819844245911,1500.0,0.0029670597283903604,-14.0,1572.0,0.0,5.0,1605.0,1494.0,5.0,9.85,1500.0,0.0,-0.007087507750838995,0.0,0.01311735063791275,15.0,444.0,197.0,0.0,2.463357706264797,1000.0,-0.06374338269233704,51.4594357,-0.0010471975511965976,0.0,-9.703924179077148,0.10172590613365173,0.060120683163404465,-3.0,32.400956,1.4480493068695068,1.0,600.0600357055664,0.0010471975511965976,0.0645771823237902,,,,,,,
10.899913999999995,-2.7913088,0.0,0.014276125468313694,0.0,-0.11131884157657623,0.0,0.0,1418.0,-0.0010471975511965976,1500.0,0.0,0.0,32.461397,-0.5756819844245911,1500.0,0.0010471975511965976,-14.0,1572.0,0.0,5.0,1604.0,1495.0,5.0,9.85,1500.0,0.0,-0.0011044878046959639,0.0,0.012858946807682514,15.0,444.0,197.0,0.0,2.463532239189996,1000.0,-0.06339854001998901,51.4594357,-0.0010471975511965976,0.0,-9.673592567443848,0.06216583028435707,0.590943455696106,-3.0,32.500921999999996,1.507157802581787,1.0,600.1200637817383,0.0010471975511965976,0.0645771823237902,,,,,,,
10.999935999999998,-2.7913086,0.0,0.006646988447755575,0.0,-0.11131884157657623,0.0,0.0,1417.0,-0.0010471975511965976,1500.0,0.0,0.0,32.581495,-0.5618101358413696,1500.0,0.002617993877991494,-14.0,1572.0,0.0,5.0,1605.0,1495.0,5.0,9.77,1501.0,0.0,-0.00822101254016161,0.0,0.012434343807399273,15.0,444.0,197.0,0.0,2.4631831733395972,1000.0,-0.06298629939556122,51.4594357,-0.0010471975511965976,0.0,-9.691963195800781,0.02825719490647316,0.1319723278284073,-3.0,32.600944,1.4872281551361084,1.0,600.0600357055664,0.0010471975511965976,0.0645771823237902,,,,,,,
11.099877999999997,-2.7913086,0.0,0.013652123510837555,0.0,-0.11131884157657623,0.0,0.0,1418.0,-0.0010471975511965976,1500.0,0.0,0.0,32.661954,-0.5618101358413696,1500.0,0.0013962634015954637,-14.0,1572.0,0.0,5.0,1604.0,1495.0,5.0,9.77,1500.0,0.0,-0.002686204621568322,0.0,0.012097764760255814,15.0,444.0,197.0,0.0,2.4631831733395972,1000.0,-0.06212697923183441,51.4594357,-0.0010471975511965976,0.0,-9.663971900939941,0.0875973030924797,0.5365205407142639,-3.0,32.700886,1.5088952779769897,1.0,600.0719985961914,0.0010471975511965976,0.0645771823237902,,,,,,,
11.199908999999998,-2.7913082,0.0,0.006047588307410479,0.0,-0.11131884157657623,0.0,0.0,1418.0,-0.0010471975511965976,1500.0,0.0,0.0,32.781029,-0.534066379070282,1500.0,0.0022689280275926286,-14.0,1571.0,0.0,5.0,1605.0,1495.0,5.0,9.67,1500.0,0.0,-0.009234989061951637,0.0,0.011935791000723839,15.0,444.0,197.0,0.0,2.463008640414398,1001.0,-0.06069144979119301,51.4594357,-0.0010471975511965976,0.0,-9.691438674926758,-0.05086295306682587,0.2133958637714386,-3.0,32.800917,1.4820314645767212,1.0,600.0600357055664,0.0010471975511965976,0.0645771823237902,,,,,,,
11.299909999999997,-2.7913082,0.0,0.01221602875739336,0.0,-0.11131884157657623,0.0,0.0,1418.0,-0.0010471975511965976,1500.0,0.0,0.0,32.861415,-0.534066379070282,1500.0,0.0015707963267948964,-14.0,1572.0,0.0,5.0,1605.0,1494.0,5.0,9.67,1500.0,0.0,-0.00408283481374383,0.0,0.011814228259027004,15.0,444.0,197.0,0.0,2.463008640414398,1000.0,-0.05887729674577713,51.4594357,-0.0010471975511965976,0.0,-9.674753189086914,-0.10172590613365173,0.5043905377388,-3.0,32.900918,1.489319920539856,1.0,600.0600357055664,0.0010471975511965976,0.0645771823237902,,,,,,,
11.399926,-2.7913071,0.0,0.0049948738887906075,0.0,-0.10018695890903473,0.0,0.0,1418.0,-0.0010471975511965976,1500.0,0.0,0.0,32.981026,-0.4577712118625641,1500.0,0.0020943951023931952,-14.0,1572.0,0.0,5.0,1605.0,1494.0,5.0,9.540000000000001,1500.0,0.0,-0.010096481069922447,0.0,0.01314476691186428,15.0,444.0,197.0,0.0,2.462659574563999,1000.0,-0.05296265333890915,51.459435799999994,-0.0010471975511965976,0.0,-9.676050186157227,-0.13563454151153564,0.2601712942123413,-3.0,33.000934,1.4902538061141968,1.0,600.0600357055664,0.0010471975511965976,0.0645771823237902,,,,,,,
11.499936999999996,-2.7913071,0.0,0.010284277610480785,0.0,-0.10018695890903473,0.0,0.0,1418.0,-0.0008726646259971648,1500.0,0.0,0.0,33.061896,-0.4577712118625641,1500.0,0.0017453292519943296,-14.0,1572.0,0.0,5.0,1605.0,1494.0,5.0,9.540000000000001,1500.0,0.0,-0.005364120937883854,0.0,0.014644383452832699,15.0,444.0,197.0,0.0,2.462659574563999,1000.0,-0.04680751636624336,51.459435799999994,-0.0010471975511965976,0.0,-9.65674114227295,-0.011302878148853779,0.455790638923645,-3.0,33.100944999999996,1.4982562065124512,1.0,600.0600357055664,0.0010471975511965976,0.0645771823237902,,,,,,,
11.599907000000002,-2.7913063,0.0,0.004582324530929327,0.0,-0.08905507624149323,0.0,0.0,1418.0,-0.0008726646259971648,1500.0,0.0,0.0,33.180982,-0.40228378772735596,1500.0,0.0019198621771937625,-14.0,1572.0,0.0,5.0,1605.0,1494.0,5.0,9.42,1500.0,0.0,-0.010169532150030136,0.0,0.017571983858942986,15.0,444.0,197.0,0.0,2.462659574563999,1000.0,-0.036761246621608734,51.459435899999995,-0.0010471975511965976,0.0,-9.663752555847168,-0.011302878148853779,0.3020702004432678,-3.0,33.200915,1.4980701208114624,1.0,600.0000076293945,0.0010471975511965976,0.06475171524898962,,,,,,,
11.699928999999997,-2.7913063,0.0,0.00830155797302723,0.0,-0.08905507624149323,0.0,0.0,1418.0,-0.0008726646259971648,1500.0,0.0,0.0,33.261395,-0.40228378772735596,1500.0,0.0019198621771937625,-14.0,1572.0,0.0,5.0,1604.0,1495.0,5.0,9.42,1500.0,0.0,-0.006576606538146734,0.0,0.018480077385902405,15.0,444.0,197.0,0.0,2.4624850416387996,1000.0,-0.03078901395201683,51.459435899999995,-0.0010471975511965976,0.0,-9.661419868469238,0.08477158844470978,0.42432355880737305,-3.0,33.300937,1.5015274286270142,1.0,600.0000076293945,0.0010471975511965976,0.06475171524898962,,,,,,,
11.799878,-2.7913061,0.0,0.0034359663259238005,0.0,-0.06679131090641022,0.0,0.0,1418.0,-0.0008726646259971648,1500.0,0.0,0.0,33.381022,-0.3884119391441345,1500.0,0.0019198621771937625,-14.0,1571.0,0.0,5.0,1605.0,1495.0,5.0,9.3,1500.0,0.0,-0.01027770061045885,0.0,0.020075764507055283,15.0,444.0,197.0,0.0,2.4624850416387996,1001.0,-0.024010246619582176,51.4594361,-0.0010471975511965976,0.0,-9.661473274230957,0.10737734287977219,0.337588369846344,-3.0,33.400886,1.4941233396530151,1.0,600.0000076293945,0.0010471975511965976,0.06475171524898962,,,,,,,
11.899915,-2.7913061,0.0,0.0062886690720915794,0.0,-0.06679131090641022,0.0,0.0,1418.0,-0.0008726646259971648,1500.0,0.0,0.0,33.461414999999995,-0.3884119391441345,1500.0,0.0020943951023931952,-14.0,1571.0,0.0,5.0,1605.0,1495.0,5.0,9.3,1500.0,0.0,-0.007132075726985931,0.0,0.0202763844281435,15.0,444.0,197.0,0.0,2.4623105087136,1000.0,-0.02154899388551712,51.4594361,-0.0010471975511965976,0.0,-9.6665620803833,0.025431476533412933,0.4158238470554352,-3.0,33.500923,1.5026664733886719,1.0,600.0000076293945,0.0010471975511965976,0.06475171524898962,,,,,,,
11.999865999999997,-2.7913056999999997,0.0,0.0023118758108466864,0.0,-0.055659420788288116,0.0,0.0,1418.0,-0.0008726646259971648,1500.0,0.0,0.0,33.581491,-0.36066824197769165,1500.0,0.0019198621771937625,-14.0,1572.0,0.0,5.0,1605.0,1494.0,5.0,9.22,1500.0,0.0,-0.009863875806331635,0.0,0.020368441939353943,15.0,444.0,197.0,0.0,2.4621359757884007,1000.0,-0.0191976148635149,51.4594362,-0.0010471975511965976,0.0,-9.652619361877441,0.15824028849601746,0.33146077394485474,-3.0,33.600874,1.5015156269073486,1.0,600.0000076293945,0.0010471975511965976,0.06475171524898962,,,,,,,
12.099938000000002,-2.7913056999999997,0.0,0.005079593509435654,0.0,-0.055659420788288116,0.0,0.0,1418.0,-0.0008726646259971648,1500.0,0.0,0.0,33.661982,-0.36066824197769165,1500.0,0.0020943951023931952,-14.0,1572.0,0.0,5.0,1605.0,1494.0,5.0,9.22,1500.0,0.0,-0.007499098777770996,0.0,0.01992199569940567,15.0,444.0,197.0,0.0,2.4621359757884007,1000.0,-0.018872713670134544,51.4594362,-0.0010471975511965976,0.0,-9.662882804870605,0.05651438981294632,0.39403441548347473,-3.0,33.700946,1.49872624874115,1.0,600.036003112793,0.0010471975511965976,0.06475171524898962,,,,,,,
12.199939,-2.7913052,0.0,0.0013219760730862617,0.0,-0.04452753812074661,0.0,0.0,1417.0,-0.0008726646259971648,1501.0,0.0,0.0,33.781023,-0.3259885609149933,1500.0,0.0019198621771937625,-14.0,1572.0,0.0,5.0,1605.0,1495.0,5.0,9.120000000000001,1500.0,0.0,-0.009990770369768143,0.0,0.019408639520406723,15.0,444.0,197.0,0.0,2.4619614428632013,1000.0,-0.019831756129860878,51.4594363,-0.0010471975511965976,0.0,-9.65988826751709,0.005651439074426889,0.37204933166503906,-3.0,33.800947,1.5017350912094116,1.0,600.036003112793,0.0010471975511965976,0.06475171524898962,,,,,,,
12.299932999999996,-2.7913052,0.0,0.003483113134279847,0.0,-0.04452753812074661,0.0,0.0,1418.0,-0.0006981317007977319,1500.0,0.0,0.0,33.861323,-0.3259885609149933,1500.0,0.0022689280275926286,-14.0,1572.0,0.0,5.0,1604.0,1495.0,5.0,9.120000000000001,1500.0,0.0,-0.008240681141614914,0.0,0.01922345533967018,15.0,444.0,197.0,0.0,2.461786909938002,1000.0,-0.01987837813794613,51.4594363,-0.0010471975511965976,0.0,-9.658793449401855,0.11585450172424316,0.359999418258667,-3.0,33.900940999999996,1.4935762882232666,1.0,600.036003112793,0.0010471975511965976,0.06475171524898962,,,,,,,
12.399902999999995,-2.791305,0.0,0.0008641317836008966,0.0,-0.03339565545320511,0.0,0.0,1418.0,-0.0006981317007977319,1500.0,0.0,0.0,33.98103,-0.31211671233177185,1500.0,0.0019198621771937625,-14.0,1572.0,0.0,5.0,1605.0,1494.0,5.0,9.06,1500.0,0.0,-0.009600397199392319,0.0,0.018735429272055626,14.0,444.0,197.0,0.0,2.461786909938002,1000.0,-0.020243195816874504,51.459436399999994,-0.0010471975511965976,0.0,-9.65270709991455,0.183671772480011,0.38977986574172974,-3.0,34.000910999999995,1.4964981079101562,1.0,600.036003112793,0.0010471975511965976,0.06492624817418906,,,,,,,
12.499915000000001,-2.791305,0.0,0.002158465562388301,0.0,-0.03339565545320511,0.0,0.0,1417.0,-0.0006981317007977319,1500.0,0.0,0.0,34.061931,-0.31211671233177185,1500.0,0.0022689280275926286,-14.0,1572.0,0.0,5.0,1605.0,1495.0,5.0,9.06,1500.0,0.0,-0.00832087267190218,0.0,0.018466392531991005,14.0,444.0,197.0,0.0,2.4616123770128024,1000.0,-0.02207026071846485,51.459436399999994,-0.0010471975511965976,0.0,-9.648286819458008,-0.005651439074426889,0.3545897603034973,-3.0,34.100923,1.4878910779953003,1.0,600.036003112793,0.0010471975511965976,0.06492624817418906,,,,,,,
12.599950999999997,-2.7913049,0.0,-0.0003691928868647665,0.0,-0.022263769060373306,0.0,0.0,1418.0,-0.0006981317007977319,1500.0,0.0,0.0,34.181004,-0.3051808178424835,1500.0,0.0019198621771937625,-14.0,1572.0,0.0,5.0,1604.0,1495.0,5.0,8.99,1500.0,0.0,-0.009981486946344376,0.0,0.017761453986167908,14.0,444.0,197.0,0.0,2.4616123770128024,1000.0,-0.024622777476906776,51.459436499999995,-0.0010471975511965976,0.0,-9.658169746398926,0.022605756297707558,0.40967291593551636,-3.0,34.200959,1.5143874883651733,1.0,600.0000076293945,0.0010471975511965976,0.06475171524898962,,,,,,,
12.699909999999996,-2.7913049,0.0,0.001099308137781918,0.0,-0.022263769060373306,0.0,0.0,1418.0,-0.0006981317007977319,1500.0,0.0,0.0,34.261334,-0.3051808178424835,1500.0,0.002617993877991494,-14.0,1572.0,0.0,5.0,1605.0,1494.0,5.0,8.99,1500.0,0.0,-0.008653373457491398,0.0,0.017494812607765198,14.0,444.0,197.0,0.0,2.461437844087603,1000.0,-0.025067277252674103,51.459436499999995,-0.0010471975511965976,0.0,-9.665745735168457,0.039560072124004364,0.3254544138908386,-3.0,34.300917999999996,1.4881172180175781,1.0,600.0000076293945,0.0010471975511965976,0.06492624817418906,,,,,,,
12.799915999999996,-2.7913041,0.0,-0.0005452014156617224,0.0,-0.022263769060373306,0.0,0.0,1420.0,-0.0006981317007977319,1500.0,0.0,0.0,34.381015999999995,-0.2496933788061142,1500.0,0.0019198621771937625,-14.0,1572.0,0.0,5.0,1604.0,1495.0,5.0,8.92,1500.0,0.0,-0.00894920714199543,0.0,0.01700783707201481,14.0,444.0,197.0,0.0,2.4612633111624036,1000.0,-0.024985039606690407,51.459436499999995,-0.0010471975511965976,0.0,-9.660805702209473,0.0762944296002388,0.42577311396598816,-3.0,34.400923999999996,1.4987612962722778,1.0,600.0000076293945,0.0010471975511965976,0.06475171524898962,,,,,,,
12.899881,-2.7913041,0.0,-0.00024127443612087518,0.0,-0.022263769060373306,0.0,0.0,1419.0,-0.0006981317007977319,1500.0,0.0,0.0,34.461402,-0.2496933788061142,1500.0,0.002617993877991494,-14.0,1572.0,0.0,5.0,1605.0,1494.0,5.0,8.92,1500.0,0.0,-0.008794116787612438,0.0,0.016422169283032417,14.0,444.0,197.0,0.0,2.4610887782372037,1000.0,-0.02505876123905182,51.459436499999995,-0.0010471975511965976,0.0,-9.660396575927734,0.05368867143988609,0.31813132762908936,-3.0,34.500889,1.5034680366516113,1.0,600.1800918579102,0.0010471975511965976,0.06475171524898962,,,,,,,
12.999963000000001,-2.7913037,0.0,-0.0011467438889667392,0.0,-0.011131884530186653,0.0,0.0,1419.0,-0.0006981317007977319,1500.0,0.0,0.0,34.581632,-0.22194968163967133,1500.0,0.0017453292519943296,-14.0,1572.0,0.0,5.0,1605.0,1494.0,5.0,8.84,1500.0,0.0,-0.00954337976872921,0.0,0.015964919701218605,14.0,444.0,197.0,0.0,2.4609142453120048,1000.0,-0.025414790958166122,51.4594366,-0.0010471975511965976,0.0,-9.65567684173584,0.031082915142178535,0.43806809186935425,-3.0,34.600971,1.4925544261932373,1.0,600.1800918579102,0.0010471975511965976,0.06475171524898962,,,,,,,
13.099919999999997,-2.7913037,0.0,-0.001207559835165739,0.0,-0.011131884530186653,0.0,0.0,1419.0,-0.0005235987755982988,1500.0,0.0,0.0,34.66195,-0.22194968163967133,1500.0,0.0024434609527920616,-14.0,1571.0,0.0,5.0,1605.0,1495.0,5.0,8.84,1500.0,0.0,-0.00915965810418129,0.0,0.015481446869671345,14.0,444.0,197.0,0.0,2.4607397123868053,1001.0,-0.025400128215551376,51.4594366,-0.0010471975511965976,0.0,-9.667531967163086,-0.07346870750188828,0.3018460273742676,-3.0,34.700928,1.505686640739441,1.0,600.1800918579102,0.0010471975511965976,0.06475171524898962,,,,,,,
13.199933999999999,-2.7913026999999997,0.0,-0.001053494866937399,0.0,0.011131884530186653,0.0,0.0,1420.0,-0.0005235987755982988,1500.0,0.0,0.0,34.781003,-0.15259040892124176,1500.0,0.0019198621771937625,-14.0,1571.0,0.0,5.0,1605.0,1495.0,5.0,8.77,1500.0,0.0,-0.00908505916595459,0.0,0.015549805946648121,14.0,444.0,197.0,0.0,2.4607397123868053,1000.0,-0.023602217435836792,51.4594368,-0.0010471975511965976,0.0,-9.66164493560791,0.05651438981294632,0.4213651120662689,-3.0,34.800942,1.492647647857666,1.0,600.0960311889648,0.0010471975511965976,0.06475171524898962,,,,,,,
13.299909999999997,-2.7913026999999997,0.0,-0.001617002417333424,0.0,0.011131884530186653,0.0,0.0,1420.0,-0.0005235987755982988,1500.0,0.0,0.0,34.861335,-0.15259040892124176,1500.0,0.0022689280275926286,-14.0,1572.0,0.0,5.0,1604.0,1495.0,5.0,8.77,1500.0,0.0,-0.009810925461351871,0.0,0.01580391265451908,14.0,444.0,197.0,0.0,2.4605651794616055,1000.0,-0.021912474185228348,51.4594368,-0.0010471975511965976,0.0,-9.663711547851562,-0.05086295306682587,0.31271451711654663,-3.0,34.900918,1.5010206699371338,1.0,600.0960311889648,0.0010471975511965976,0.06475171524898962,,,,,,,
13.399879999999996,-2.7913021,0.0,-0.0006185738602653146,0.0,0.022263769060373306,0.0,0.0,1420.0,-0.0005235987755982988,1500.0,0.0,0.0,34.980973,-0.11097484081983566,1501.0,0.0019198621771937625,-14.0,1572.0,0.0,5.0,1605.0,1494.0,5.0,8.67,1500.0,0.0,-0.00909669790416956,0.0,0.015906086191534996,14.0,444.0,197.0,0.0,2.4603906465364065,1000.0,-0.01898382417857647,51.4594369,-0.0010471975511965976,0.0,-9.658868789672852,0.005651439074426889,0.39828720688819885,-3.0,35.000887999999996,1.4870777130126953,1.0,600.0719985961914,0.0010471975511965976,0.06475171524898962,,,,,,,
13.499932000000001,-2.7913021,0.0,-0.0009407579200342298,0.0,0.022263769060373306,0.0,0.0,1420.0,-0.0005235987755982988,1500.0,0.0,0.0,35.061942,-0.11097484081983566,1500.0,0.0022689280275926286,-14.0,1572.0,0.0,5.0,1605.0,1494.0,5.0,8.67,1500.0,0.0,-0.0092375623062253,0.0,0.016399890184402466,14.0,444.0,197.0,0.0,2.4603906465364065,1000.0,-0.016566911712288857,51.4594369,-0.0010471975511965976,0.0,-9.666728973388672,0.12150593847036362,0.3247276544570923,-3.0,35.10094,1.4950697422027588,1.0,600.0719985961914,0.0010471975511965976,0.06475171524898962,,,,,,,
13.599933,-2.7913018999999997,0.0,0.00018928415374830365,0.0,0.03339565545320511,0.0,0.0,1419.0,-0.0005235987755982988,1500.0,0.0,0.0,35.181036999999996,-0.09710298478603363,1500.0,0.0017453292519943296,-14.0,1572.0,0.0,5.0,1605.0,1494.0,5.0,8.620000000000001,1500.0,0.0,-0.00868321768939495,0.0,0.01658894680440426,15.0,444.0,197.0,0.0,2.460216113611207,1000.0,-0.014545091427862644,51.459437,-0.0010471975511965976,0.0,-9.665603637695312,-0.045211512595415115,0.4310726225376129,-3.0,35.200941,1.495978832244873,1.0,600.0719985961914,0.0010471975511965976,0.06475171524898962,,,,,,,
13.700077,-2.7913018999999997,0.0,-0.001215645344927907,0.0,0.03339565545320511,0.0,0.0,1418.0,-0.0005235987755982988,1500.0,0.0,0.0,35.261415,-0.09710298478603363,1501.0,0.0022689280275926286,-14.0,1572.0,0.0,5.0,1605.0,1494.0,5.0,8.620000000000001,1500.0,0.0,-0.009294481948018074,0.0,0.016698701307177544,15.0,444.0,197.0,0.0,2.460216113611207,1000.0,-0.013409803621470928,51.459437,-0.0010471975511965976,0.0,-9.66121768951416,-0.045211512595415115,0.30074211955070496,-3.0,35.301085,1.502903938293457,1.0,600.0719985961914,0.0010471975511965976,0.06475171524898962,,,,,,,
13.799901999999996,-2.7913018999999997,0.0,3.227474007871933e-05,0.0,0.04452753812074661,0.0,0.0,1417.0,-0.0005235987755982988,1500.0,0.0,0.0,35.381008,-0.09710298478603363,1500.0,0.0019198621771937625,-14.0,1572.0,0.0,5.0,1605.0,1495.0,5.0,8.58,1500.0,0.0,-0.008382941596210003,0.0,0.01713700033724308,15.0,444.0,197.0,0.0,2.4600415806860076,1000.0,-0.010194565169513226,51.459437099999995,-0.0010471975511965976,0.0,-9.673514366149902,0.008477158844470978,0.4260483384132385,-3.0,35.400909999999996,1.4868335723876953,1.0,600.0719985961914,0.0010471975511965976,0.06475171524898962,,,,,,,
13.899932,-2.7913018999999997,0.0,-0.0011326122330501676,0.0,0.04452753812074661,0.0,0.0,1418.0,-0.0005235987755982988,1500.0,0.0,0.0,35.461392,-0.09710298478603363,1500.0,0.0022689280275926286,-14.0,1571.0,0.0,5.0,1605.0,1495.0,5.0,8.58,1500.0,0.0,-0.009094614535570145,0.0,0.017100632190704346,15.0,444.0,197.0,0.0,2.4598670477608082,1000.0,-0.007859696634113789,51.459437099999995,-0.0010471975511965976,0.0,-9.653783798217773,0.016954317688941956,0.3250507116317749,-3.0,35.50094,1.4957056045532227,1.0,600.0719985961914,0.0010471975511965976,0.06475171524898962,,,,,,,
13.999916999999996,-2.7913015,0.0,-2.62963367276825e-05,0.0,0.055659420788288116,0.0,0.0,1416.0,-0.0005235987755982988,1500.0,0.0,0.0,35.581811,-0.06935927271842957,1500.0,0.0019198621771937625,-14.0,1572.0,0.0,5.0,1605.0,1494.0,5.0,8.53,1500.0,0.0,-0.008229765109717846,0.0,0.017468364909291267,15.0,444.0,197.0,0.0,2.4598670477608082,1000.0,-0.004843155853450298,51.459437199999996,-0.0010471975511965976,0.0,-9.651368141174316,0.12715737521648407,0.4012710452079773,-3.0,35.600925,1.502874493598938,1.0,600.0000076293945,0.0010471975511965976,0.06475171524898962,,,,,,,
14.099955000000001,-2.7913015,0.0,-0.00026294132112525403,0.0,0.055659420788288116,0.0,0.0,1418.0,-0.0005235987755982988,1500.0,0.0,0.0,35.661944,-0.06935927271842957,1500.0,0.0020943951023931952,-14.0,1572.0,0.0,5.0,1604.0,1495.0,5.0,8.53,1500.0,0.0,-0.008387303911149502,0.0,0.017663512378931046,15.0,444.0,197.0,0.0,2.459692514835609,1000.0,-0.004058553837239742,51.459437199999996,-0.0010471975511965976,0.0,-9.66433048248291,-0.022605756297707558,0.33756354451179504,-3.0,35.700963,1.4934371709823608,1.0,600.0719985961914,0.0010471975511965976,0.06475171524898962,,,,,,,
14.199888999999999,-2.7913012,0.0,-0.00022269858163781464,0.0,0.055659420788288116,0.0,0.0,1418.0,-0.0005235987755982988,1500.0,0.0,0.0,35.781009999999995,-0.048551492393016815,1500.0,0.0015707963267948964,-14.0,1572.0,0.0,5.0,1605.0,1494.0,5.0,8.48,1500.0,0.0,-0.007235764991492033,0.0,0.017314329743385315,15.0,444.0,197.0,0.0,2.459692514835609,1000.0,-0.003456214675679803,51.459437199999996,-0.0010471975511965976,0.0,-9.655088424682617,0.025431476533412933,0.3964459002017975,-3.0,35.800897,1.488161325454712,1.0,600.0000076293945,0.0010471975511965976,0.06475171524898962,,,,,,,
14.299831999999995,-2.7913012,0.0,-0.0009464862523600459,0.0,0.055659420788288116,0.0,0.0,1418.0,-0.0005235987755982988,1500.0,0.0,0.0,35.861219999999996,-0.048551492393016815,1500.0,0.0019198621771937625,-14.0,1572.0,0.0,5.0,1605.0,1494.0,5.0,8.48,1500.0,0.0,-0.00810186192393303,0.0,0.017249057069420815,15.0,444.0,197.0,0.0,2.4595179819104094,1000.0,-0.002698437077924609,51.459437199999996,-0.0010471975511965976,0.0,-9.655155181884766,0.09607446193695068,0.35022106766700745,-3.0,35.900839999999995,1.4956201314926147,1.0,600.0000076293945,0.0010471975511965976,0.06475171524898962,,,,,,,
14.399915999999997,-2.7913012,0.0,0.0005793811869807541,0.0,0.055659420788288116,0.0,0.0,1418.0,-0.00034906585039886593,1500.0,0.0,0.0,35.981004,-0.048551492393016815,1500.0,0.0019198621771937625,-14.0,1572.0,0.0,5.0,1604.0,1495.0,5.0,8.46,1500.0,0.0,-0.008127685636281967,0.0,0.017319675534963608,15.0,444.0,197.0,0.0,2.4595179819104094,1000.0,-0.002544477116316557,51.459437199999996,-0.0010471975511965976,0.0,-9.66140079498291,0.0762944296002388,0.3804747462272644,-3.0,36.000924,1.5019830465316772,1.0,600.0000076293945,0.0010471975511965976,0.06475171524898962,,,,,,,
14.499913999999997,-2.7913012,0.0,0.0005952119245193899,0.0,0.055659420788288116,0.0,0.0,1418.0,-0.00034906585039886593,1500.0,0.0,0.0,36.061932,-0.048551492393016815,1500.0,0.0019198621771937625,-14.0,1572.0,0.0,5.0,1604.0,1495.0,5.0,8.46,1500.0,0.0,-0.008269758895039558,0.0,0.01692063733935356,15.0,444.0,197.0,0.0,2.4593434489852095,1000.0,-0.0032330912072211504,51.459437199999996,-0.0010471975511965976,0.0,-9.662240982055664,0.14411169290542603,0.37001127004623413,-3.0,36.100922,1.4848960638046265,1.0,600.0000076293945,0.0010471975511965976,0.06475171524898962,,,,,,,
14.599936999999997,-2.7913014,0.0,0.0012225776445120573,0.0,0.04452753812074661,0.0,0.0,1418.0,-0.00034906585039886593,1500.0,0.0,0.0,36.181014999999995,-0.06242334470152855,1500.0,0.0017453292519943296,-14.0,1571.0,0.0,5.0,1605.0,1495.0,5.0,8.42,1500.0,0.0,-0.007279751822352409,0.0,0.015845099464058876,15.0,444.0,197.0,0.0,2.4593434489852095,1000.0,-0.005663951858878136,51.459437099999995,-0.0010471975511965976,0.0,-9.663472175598145,0.05651438981294632,0.3922044336795807,-3.0,36.200945,1.5037204027175903,1.0,600.0000076293945,0.0010471975511965976,0.06475171524898962,,,,,,,
14.699914999999997,-2.7913014,0.0,0.00038476422196254134,0.0,0.04452753812074661,0.0,0.0,1417.0,-0.00034906585039886593,1500.0,0.0,0.0,36.261389,-0.06242334470152855,1500.0,0.0017453292519943296,-14.0,1572.0,0.0,5.0,1605.0,1495.0,5.0,8.42,1501.0,0.0,-0.008112473413348198,0.0,0.015213318169116974,15.0,444.0,197.0,0.0,2.4593434489852095,1000.0,-0.007709887810051441,51.459437099999995,-0.0010471975511965976,0.0,-9.668143272399902,0.11868022382259369,0.3840489983558655,-3.0,36.300923,1.5075759887695312,1.0,600.0000076293945,0.0010471975511965976,0.06475171524898962,,,,,,,
14.799878,-2.7913017,0.0,0.0020778318867087364,0.0,0.04452753812074661,0.0,0.0,1418.0,-0.00034906585039886593,1500.0,0.0,0.0,36.381015999999995,-0.0832311362028122,1500.0,0.0015707963267948964,-14.0,1572.0,0.0,5.0,1605.0,1494.0,5.0,8.36,1500.0,0.0,-0.0074105458334088326,0.0,0.013913511298596859,15.0,444.0,197.0,0.0,2.4591689160600105,1000.0,-0.011018403805792332,51.459437099999995,-0.0010471975511965976,0.0,-9.671285629272461,-0.016954317688941956,0.3895270526409149,-3.0,36.400886,1.4888637065887451,1.0,599.9879913330078,0.0010471975511965976,0.06475171524898962,,,,,,,
14.899906000000001,-2.7913017,0.0,8.078228711383417e-05,0.0,0.04452753812074661,0.0,0.0,1418.0,-0.00034906585039886593,1500.0,0.0,0.0,36.461405,-0.0832311362028122,1501.0,0.0012217304763960308,-14.0,1572.0,0.0,5.0,1604.0,1495.0,5.0,8.36,1500.0,0.0,-0.008498976938426495,0.0,0.012949018739163876,15.0,444.0,197.0,0.0,2.4591689160600105,1000.0,-0.012697855941951275,51.459437099999995,-0.0010471975511965976,0.0,-9.655147552490234,0.18932320177555084,0.3819417953491211,-3.0,36.500914,1.4980225563049316,1.0,600.0000076293945,0.0010471975511965976,0.06475171524898962,,,,,,,
15.000005000000002,-2.7913018,0.0,0.00022844792692922056,0.0,0.055659420788288116,0.0,0.0,1418.0,-0.00034906585039886593,1500.0,0.0,0.0,36.581635,-0.09016706049442291,1500.0,0.0013962634015954637,-14.0,1572.0,0.0,5.0,1605.0,1494.0,5.0,8.32,1500.0,0.0,-0.007520433049649,0.0,0.012168314307928085,15.0,444.0,197.0,0.0,2.4591689160600105,1000.0,-0.01570255681872368,51.459437199999996,-0.0010471975511965976,0.0,-9.656211853027344,0.14411169290542603,0.36970147490501404,-3.0,36.601013,1.493171215057373,1.0,600.0000076293945,0.0010471975511965976,0.06492624817418906,,,,,,,
15.099936,-2.7913018,0.0,0.0003745659487321973,0.0,0.055659420788288116,0.0,0.0,1418.0,-0.00034906585039886593,1500.0,0.0,0.0,36.66195,-0.09016706049442291,1500.0,0.0012217304763960308,-14.0,1572.0,0.0,5.0,1604.0,1495.0,5.0,8.32,1500.0,0.0,-0.007394684012979269,0.0,0.011131205596029758,15.0,444.0,197.0,0.0,2.458994383134811,1000.0,-0.01891758106648922,51.459437199999996,-0.0010471975511965976,0.0,-9.658178329467773,0.12715737521648407,0.3887452483177185,-3.0,36.700944,1.508815050125122,1.0,600.0000076293945,0.0010471975511965976,0.06492624817418906,,,,,,,
15.199917999999997,-2.7913018999999997,0.0,0.00044371577678248286,0.0,0.06679131090641022,0.0,0.0,1417.0,-0.00034906585039886593,1500.0,0.0,0.0,36.780985,-0.09710298478603363,1500.0,0.0012217304763960308,-14.0,1572.0,0.0,5.0,1605.0,1495.0,5.0,8.290000000000001,1501.0,0.0,-0.008005911484360695,0.0,0.009697766974568367,15.0,444.0,197.0,0.0,2.458994383134811,1000.0,-0.024301428347826004,51.4594373,-0.0010471975511965976,0.0,-9.65797233581543,0.03390863537788391,0.37648242712020874,-3.0,36.800926,1.5020478963851929,1.0,599.9879913330078,0.0008726646259971648,0.06492624817418906,,,,,,,
15.299918999999996,-2.7913018999999997,0.0,0.0009802848799154162,0.0,0.06679131090641022,0.0,0.0,1418.0,-0.00034906585039886593,1500.0,0.0,0.0,36.861401,-0.09710298478603363,1500.0,0.0013962634015954637,-14.0,1572.0,0.0,5.0,1604.0,1495.0,5.0,8.290000000000001,1500.0,0.0,-0.0075904857367277145,0.0,0.008429947309195995,15.0,444.0,197.0,0.0,2.4588198502096112,1000.0,-0.02728716842830181,51.4594373,-0.0010471975511965976,0.0,-9.652812957763672,0.13280881941318512,0.3685300350189209,-3.0,36.900926999999996,1.49616539478302,1.0,600.0000076293945,0.0010471975511965976,0.06492624817418906,,,,,,,
15.399878000000001,-2.791302,0.0,0.0009547208901494741,0.0,0.07792319357395172,0.0,0.0,1418.0,-0.00034906585039886593,1500.0,0.0,0.0,36.981016,-0.10403890907764435,1500.0,0.0015707963267948964,-14.0,1571.0,0.0,5.0,1605.0,1495.0,5.0,8.24,1500.0,0.0,-0.007910721004009247,0.0,0.007584494072943926,15.0,444.0,197.0,0.0,2.4588198502096112,1001.0,-0.03133003041148186,51.4594374,-0.0010471975511965976,0.0,-9.659423828125,0.1412859708070755,0.3705260753631592,-3.0,37.000886,1.5050299167633057,1.0,600.0000076293945,0.0008726646259971648,0.06492624817418906,,,,,,,
15.499904999999998,-2.791302,0.0,0.00182577024679631,0.0,0.07792319357395172,0.0,0.0,1418.0,-0.00034906585039886593,1500.0,0.0,0.0,37.061847,-0.10403890907764435,1500.0,0.0017453292519943296,-14.0,1571.0,0.0,5.0,1605.0,1495.0,5.0,8.24,1500.0,0.0,-0.008018307387828827,0.0,0.007036466151475906,15.0,444.0,197.0,0.0,2.4588198502096112,1000.0,-0.03449392691254616,51.4594374,-0.0010471975511965976,0.0,-9.668474197387695,0.011302878148853779,0.36492830514907837,-3.0,37.100913,1.5027660131454468,1.0,600.0000076293945,0.0008726646259971648,0.06492624817418906,,,,,,,
15.599879999999999,-2.7913021,0.0,0.002750176703557372,0.0,0.08905507624149323,0.0,0.0,1418.0,-0.00034906585039886593,1500.0,0.0,0.0,37.180966,-0.11097484081983566,1501.0,0.0015707963267948964,-14.0,1572.0,0.0,5.0,1604.0,1495.0,5.0,8.19,1500.0,0.0,-0.00782387237995863,0.0,0.005529242567718029,15.0,444.0,197.0,0.0,2.4586453172844123,1000.0,-0.03831317275762558,51.4594375,-0.0010471975511965976,0.0,-9.65926456451416,0.05368867143988609,0.37723925709724426,-3.0,37.200888,1.499809980392456,1.0,599.9879913330078,0.0008726646259971648,0.06492624817418906,,,,,,,
15.699931,-2.7913021,0.0,0.002787582576274872,0.0,0.08905507624149323,0.0,0.0,1417.0,-0.00034906585039886593,1500.0,0.0,0.0,37.26139,-0.11097484081983566,1500.0,0.0013962634015954637,-14.0,1572.0,0.0,5.0,1605.0,1495.0,5.0,8.19,1500.0,0.0,-0.008245245553553104,0.0,0.005164294969290495,15.0,444.0,197.0,0.0,2.4586453172844123,1000.0,-0.03985533118247986,51.4594375,-0.0010471975511965976,0.0,-9.665483474731445,0.045211512595415115,0.40296342968940735,-3.0,37.300939,1.496520757675171,1.0,600.0000076293945,0.0008726646259971648,0.06492624817418906,,,,,,,
15.799906999999997,-2.7913022,0.0,0.0026080049574375153,0.0,0.10018695890903473,0.0,0.0,1418.0,-0.00034906585039886593,1500.0,0.0,0.0,37.381014,-0.11791076511144638,1500.0,0.0015707963267948964,-14.0,1572.0,0.0,5.0,1605.0,1494.0,5.0,8.15,1500.0,0.0,-0.008352760225534439,0.0,0.0042575327679514885,15.0,444.0,197.0,0.0,2.4586453172844123,1000.0,-0.04148891940712929,51.4594376,-0.0010471975511965976,0.0,-9.664702415466309,0.12150593847036362,0.35768580436706543,-3.0,37.400915,1.4923598766326904,1.0,600.0000076293945,0.0008726646259971648,0.06492624817418906,,,,,,,
15.89994,-2.7913022,0.0,0.002444457495585084,0.0,0.10018695890903473,0.0,0.0,1417.0,-0.00034906585039886593,1501.0,0.0,0.0,37.461389,-0.11791076511144638,1500.0,0.0012217304763960308,-14.0,1572.0,0.0,5.0,1605.0,1495.0,5.0,8.15,1500.0,0.0,-0.008246286772191525,0.0,0.0038119510281831026,15.0,444.0,197.0,0.0,2.4586453172844123,1000.0,-0.04277052357792854,51.4594376,-0.0010471975511965976,0.0,-9.660161018371582,0.2288832813501358,0.4102547764778137,-3.0,37.500948,1.4953352212905884,1.0,600.0000076293945,0.0008726646259971648,0.06492624817418906,,,,,,,
15.999882999999997,-2.7913022,0.0,0.0017616312252357602,0.0,0.12245073169469833,0.0,0.0,1418.0,-0.00034906585039886593,1500.0,0.0,0.0,37.581511,-0.11791076511144638,1500.0,0.0015707963267948964,-14.0,1572.0,0.0,5.0,1605.0,1494.0,5.0,8.11,1500.0,0.0,-0.009107893332839012,0.0,0.002431926317512989,15.0,444.0,197.0,0.0,2.458470784359213,1000.0,-0.04674633964896202,51.459437799999996,-0.0010471975511965976,0.0,-9.671595573425293,0.15824028849601746,0.35318291187286377,-3.0,37.600891,1.5021220445632935,1.0,600.0000076293945,0.0008726646259971648,0.06492624817418906,,,,,,,
16.099931999999995,-2.7913022,0.0,0.002987023675814271,0.0,0.12245073169469833,0.0,0.0,1418.0,-0.00034906585039886593,1500.0,0.0,0.0,37.661937,-0.11791076511144638,1500.0,0.0013962634015954637,-14.0,1572.0,0.0,5.0,1605.0,1494.0,5.0,8.11,1500.0,0.0,-0.007797782775014639,0.0,0.0012149950489401817,15.0,444.0,197.0,0.0,2.458470784359213,1000.0,-0.05054466426372528,51.459437799999996,-0.0010471975511965976,0.0,-9.655974388122559,0.14976313710212708,0.4086335003376007,-3.0,37.700939999999996,1.5057697296142578,1.0,600.0000076293945,0.0008726646259971648,0.06492624817418906,,,,,,,
16.199951,-2.7913022,0.0,0.0017902400577440858,0.0,0.13358262181282043,0.0,0.0,1418.0,-0.00017453292519943296,1500.0,0.0,0.0,37.781029,-0.11791076511144638,1500.0,0.0015707963267948964,-14.0,1572.0,0.0,5.0,1605.0,1495.0,5.0,8.06,1500.0,0.0,-0.008731414563953876,0.0,-0.0004930441500619054,15.0,444.0,197.0,0.0,2.458296251434013,1000.0,-0.05657423660159111,51.4594379,-0.0010471975511965976,0.0,-9.667257308959961,0.25714048743247986,0.3629700243473053,-3.0,37.800959,1.4850645065307617,1.0,599.9879913330078,0.0008726646259971648,0.06492624817418906,,,,,,,
16.299887,-2.7913022,0.0,0.0023467247374355793,0.0,0.13358262181282043,0.0,0.0,1418.0,-0.00017453292519943296,1500.0,0.0,0.0,37.861447999999996,-0.11791076511144638,1500.0,0.0013962634015954637,-14.0,1572.0,0.0,5.0,1605.0,1495.0,5.0,8.06,1500.0,0.0,-0.008288418874144554,0.0,-0.0019090361893177032,15.0,444.0,197.0,0.0,2.458296251434013,1000.0,-0.06149681285023689,51.4594379,-0.0010471975511965976,0.0,-9.66240119934082,0.1525888592004776,0.3991471230983734,-3.0,37.900895,1.4954259395599365,1.0,600.0000076293945,0.0008726646259971648,0.06492624817418906,,,,,,,
16.399893,-2.7913021,0.0,0.0017356178723275661,0.0,0.15584638714790344,0.0,0.0,1417.0,-0.00017453292519943296,1500.0,0.0,0.0,37.980995,-0.11097484081983566,1500.0,0.0019198621771937625,-14.0,1572.0,0.0,5.0,1605.0,1495.0,5.0,8.01,1500.0,0.0,-0.0090965386480093,0.0,-0.003312348620966077,15.0,444.0,197.0,0.0,2.458121718508814,1000.0,-0.06952714920043945,51.4594381,-0.0010471975511965976,0.0,-9.664311408996582,0.23736044764518738,0.3349182903766632,-3.0,38.000901,1.4999735355377197,1.0,600.0000076293945,0.0008726646259971648,0.06492624817418906,,,,,,,
16.499839,-2.7913021,0.0,0.0031672208569943905,0.0,0.15584638714790344,0.0,0.0,1418.0,-0.00017453292519943296,1500.0,0.0,0.0,38.061923,-0.11097484081983566,1500.0,0.0017453292519943296,-14.0,1572.0,0.0,5.0,1605.0,1494.0,5.0,8.01,1500.0,0.0,-0.008353862911462784,0.0,-0.00454596895724535,15.0,444.0,197.0,0.0,2.4579471855836146,1000.0,-0.07507569342851639,51.4594381,-0.0010471975511965976,0.0,-9.66195297241211,0.3164805769920349,0.3979043662548065,-3.0,38.100847,1.5029921531677246,1.0,642.3432998657227,0.0008726646259971648,0.06492624817418906,,,,,,,
16.599919999999997,-2.7913021,0.0,0.002245065290480852,0.0,0.17811015248298645,0.0,0.0,1417.0,-0.00017453292519943296,1501.0,0.0,0.0,38.180999,-0.11097484081983566,1500.0,0.0019198621771937625,-14.0,1572.0,0.0,5.0,1605.0,1495.0,5.0,7.98,1500.0,0.0,-0.00915822759270668,0.0,-0.006536866072565317,15.0,444.0,197.0,0.0,2.4579471855836146,1000.0,-0.08513669669628143,51.459438299999995,-0.0010471975511965976,0.0,-9.667463302612305,0.2288832813501358,0.35030466318130493,-3.0,38.200928,1.4891791343688965,1.0,600.0000076293945,0.0008726646259971648,0.06492624817418906,,,,,,,
16.699917,-2.7913021,0.0,0.0026365758385509253,0.0,0.17811015248298645,0.0,0.0,1417.0,-0.00017453292519943296,1501.0,0.0,0.0,38.261416,-0.11097484081983566,1500.0,0.0017453292519943296,-14.0,1572.0,0.0,5.0,1605.0,1495.0,5.0,7.98,1500.0,0.0,-0.008220487274229527,0.0,-0.008023682981729507,15.0,444.0,197.0,0.0,2.4579471855836146,1000.0,-0.0924554094672203,51.459438299999995,-0.0010471975511965976,0.0,-9.660021781921387,0.2175804078578949,0.3899267613887787,-3.0,38.300925,1.5075695514678955,1.0,642.3432998657227,0.0008726646259971648,0.06492624817418906,,,,,,,
16.799929999999996,-2.7913021,0.0,0.0017688273219391704,0.0,0.20037391781806946,0.0,0.0,1418.0,-0.00017453292519943296,1500.0,0.0,0.0,38.380998999999996,-0.11097484081983566,1500.0,0.0019198621771937625,-14.0,1572.0,0.0,5.0,1605.0,1494.0,5.0,7.92,1500.0,0.0,-0.009412004612386227,0.0,-0.010350230149924755,14.0,444.0,197.0,0.0,2.4579471855836146,1000.0,-0.1029909998178482,51.4594385,-0.0010471975511965976,0.0,-9.668262481689453,0.17802032828330994,0.3579752743244171,-3.0,38.400938,1.4992530345916748,1.0,600.0480194091797,0.0008726646259971648,0.0651007810993885,,,,,,,
16.899935999999997,-2.7913021,0.0,0.0017199860885739326,0.0,0.20037391781806946,0.0,0.0,1418.0,-0.00017453292519943296,1500.0,0.0,0.0,38.461444,-0.11097484081983566,1500.0,0.0017453292519943296,-14.0,1572.0,0.0,5.0,1605.0,1494.0,5.0,7.92,1500.0,0.0,-0.009387373924255371,0.0,-0.011952509172260761,14.0,444.0,197.0,0.0,2.4579471855836146,1000.0,-0.10941959917545319,51.4594385,-0.0010471975511965976,0.0,-9.666666030883789,0.12433166056871414,0.3820543587207794,-3.0,38.500944,1.4951244592666626,1.0,600.0480194091797,0.0008726646259971648,0.0651007810993885,,,,,,,
17.000045,-2.791302,0.0,0.001350577105768025,0.0,0.21150580048561096,0.0,0.0,1417.0,-0.00017453292519943296,1500.0,0.0,0.0,38.581483,-0.10403890907764435,1500.0,0.0020943951023931952,-14.0,1572.0,0.0,5.0,1605.0,1495.0,5.0,7.88,1500.0,0.0,-0.009310053661465645,0.0,-0.013110700994729996,14.0,444.0,197.0,0.0,2.4577726526584147,1000.0,-0.11738209426403046,51.4594386,-0.0010471975511965976,0.0,-9.667393684387207,0.13563454151153564,0.35151028633117676,-3.0,38.601053,1.5065540075302124,1.0,600.0000076293945,0.0008726646259971648,0.0651007810993885,,,,,,,
17.099937999999995,-2.791302,0.0,0.0013380051823332906,0.0,0.21150580048561096,0.0,0.0,1418.0,-0.00017453292519943296,1500.0,0.0,0.0,38.661992999999995,-0.10403890907764435,1500.0,0.0019198621771937625,-14.0,1572.0,0.0,5.0,1605.0,1494.0,5.0,7.88,1500.0,0.0,-0.009242246858775616,0.0,-0.01396028883755207,14.0,444.0,197.0,0.0,2.4577726526584147,1000.0,-0.12158387154340744,51.4594386,-0.0012217304763960308,0.0,-9.676795959472656,0.10455162078142166,0.3970299959182739,-3.0,38.700945999999995,1.503006935119629,1.0,600.0000076293945,0.0008726646259971648,0.0651007810993885,,,,,,,
17.199894999999998,-2.791302,0.0,0.0014965181471779943,0.0,0.23376958072185516,0.0,0.0,1417.0,-0.00017453292519943296,1500.0,0.0,0.0,38.781036,-0.10403890907764435,1500.0,0.0022689280275926286,-14.0,1572.0,0.0,5.0,1605.0,1495.0,5.0,7.84,1500.0,0.0,-0.009660229086875916,0.0,-0.014984149485826492,14.0,444.0,197.0,0.0,2.4575981197332153,1000.0,-0.12648224830627441,51.4594388,-0.0012217304763960308,0.0,-9.67202377319336,0.13280881941318512,0.3543805181980133,-3.0,38.800903,1.4905105829238892,1.0,599.9879913330078,0.0008726646259971648,0.0651007810993885,,,,,,,
17.299935999999995,-2.791302,0.0,0.00161011703312397,0.0,0.23376958072185516,0.0,0.0,1417.0,-0.00017453292519943296,1501.0,0.0,0.0,38.861359,-0.10403890907764435,1500.0,0.0020943951023931952,-14.0,1572.0,0.0,5.0,1605.0,1495.0,5.0,7.84,1500.0,0.0,-0.008814813569188118,0.0,-0.016031287610530853,14.0,444.0,197.0,0.0,2.4574235868080163,1000.0,-0.12907573580741882,51.4594388,-0.0012217304763960308,0.0,-9.658875465393066,-0.005651439074426889,0.38041460514068604,-3.0,38.900943999999996,1.4998822212219238,1.0,599.9879913330078,0.0008726646259971648,0.0651007810993885,,,,,,,
17.399865999999996,-2.7913021,0.0,0.0014969720505177975,0.0,0.256033331155777,0.0,0.0,1418.0,-0.00017453292519943296,1500.0,0.0,0.0,38.980985,-0.11097484081983566,1500.0,0.0020943951023931952,-14.0,1572.0,0.0,5.0,1605.0,1494.0,5.0,7.8,1500.0,0.0,-0.008881496265530586,0.0,-0.016239404678344727,15.0,444.0,197.0,0.0,2.4574235868080163,1000.0,-0.13104549050331116,51.459438999999996,-0.0012217304763960308,0.0,-9.657648086547852,-0.05086295306682587,0.3698381185531616,-3.0,39.000873999999996,1.5032778978347778,1.0,599.9879913330078,0.0008726646259971648,0.0651007810993885,,,,,,,
17.49991,-2.7913021,0.0,0.0012424798915162683,0.0,0.256033331155777,0.0,0.0,1418.0,-0.00017453292519943296,1500.0,0.0,0.0,39.061915,-0.11097484081983566,1500.0,0.0019198621771937625,-14.0,1572.0,0.0,5.0,1605.0,1494.0,5.0,7.8,1500.0,0.0,-0.009207176975905895,0.0,-0.016108248382806778,15.0,444.0,197.0,0.0,2.4574235868080163,1000.0,-0.13024595379829407,51.459438999999996,-0.0012217304763960308,0.0,-9.659875869750977,0.0875973030924797,0.3700469732284546,-3.0,39.100918,1.4944465160369873,1.0,599.9879913330078,0.0008726646259971648,0.0651007810993885,,,,,,,
17.599879,-2.7913022,0.0,0.0015551807591691613,0.0,0.2782971262931824,0.0,0.0,1417.0,-0.00017453292519943296,1500.0,0.0,0.0,39.181,-0.11791076511144638,1500.0,0.0020943951023931952,-14.0,1572.0,0.0,5.0,1605.0,1495.0,5.0,7.76,1500.0,0.0,-0.00815066322684288,0.0,-0.01523562055081129,15.0,444.0,197.0,0.0,2.4572490538828164,1000.0,-0.1279885470867157,51.4594392,-0.0012217304763960308,0.0,-9.660408973693848,-0.03390863537788391,0.36483603715896606,-3.0,39.200887,1.500766634941101,1.0,599.9879913330078,0.0008726646259971648,0.0651007810993885,,,,,,,
17.699905,-2.7913022,0.0,0.0013030339032411575,0.0,0.2782971262931824,0.0,0.0,1418.0,-0.00017453292519943296,1500.0,0.0,0.0,39.261309,-0.11791076511144638,1500.0,0.0019198621771937625,-14.0,1572.0,0.0,5.0,1605.0,1494.0,5.0,7.76,1500.0,0.0,-0.007979225367307663,0.0,-0.014449895359575748,15.0,444.0,197.0,0.0,2.4572490538828164,1000.0,-0.12592937052249908,51.4594392,-0.0012217304763960308,0.0,-9.6669340133667,0.17802032828330994,0.38190194964408875,-3.0,39.300913,1.4919344186782837,1.0,599.9879913330078,0.0008726646259971648,0.0651007810993885,,,,,,,
17.799897,-2.7913021,0.0,0.0010812276741489768,0.0,0.3005608916282654,0.0,0.0,1417.0,-0.00017453292519943296,1500.0,0.0,0.0,39.381032999999995,-0.11097484081983566,1500.0,0.0020943951023931952,-14.0,1572.0,0.0,5.0,1605.0,1495.0,5.0,7.73,1500.0,0.0,-0.00694624800235033,0.0,-0.013418532907962799,16.0,444.0,197.0,0.0,2.4572490538828164,1000.0,-0.12346253544092178,51.4594394,-0.0012217304763960308,0.0,-9.664862632751465,0.008477158844470978,0.3803965151309967,-3.0,39.400905,1.4998611211776733,1.0,599.9879913330078,0.0008726646259971648,0.06527531402458793,,,,,,,
17.899896999999996,-2.7913021,0.0,0.0007360022864304483,0.0,0.3005608916282654,0.0,0.0,1417.0,-0.00017453292519943296,1501.0,0.0,0.0,39.461255,-0.11097484081983566,1500.0,0.0020943951023931952,-14.0,1572.0,0.0,5.0,1605.0,1495.0,5.0,7.73,1500.0,0.0,-0.006805253680795431,0.0,-0.013211841695010662,16.0,444.0,197.0,0.0,2.4572490538828164,1000.0,-0.12217351794242859,51.4594394,-0.0012217304763960308,0.0,-9.658756256103516,-0.03390863537788391,0.3690979480743408,-3.0,39.500904999999996,1.497628092765808,1.0,599.9879913330078,0.0008726646259971648,0.06527531402458793,,,,,,,
17.999952999999998,-2.7913018999999997,0.0,0.0011240537278354168,0.0,0.3228246569633484,0.0,0.0,1418.0,-0.00017453292519943296,1500.0,0.0,0.0,39.581734999999995,-0.09710298478603363,1500.0,0.0020943951023931952,-14.0,1572.0,0.0,5.0,1605.0,1494.0,5.0,7.72,1500.0,0.0,-0.006381725426763296,0.0,-0.012585563585162163,16.0,444.0,197.0,0.0,2.457074520957617,1000.0,-0.11873877793550491,51.459439599999996,-0.0012217304763960308,0.0,-9.65911865234375,-0.022605756297707558,0.35364627838134766,-3.0,39.600961,1.5142505168914795,1.0,599.9760284423828,0.0008726646259971648,0.06527531402458793,,,,,,,
18.099937999999995,-2.7913018999999997,0.0,0.0013027352979406714,0.0,0.3228246569633484,0.0,0.0,1418.0,-0.00017453292519943296,1500.0,0.0,0.0,39.661958,-0.09710298478603363,1500.0,0.0019198621771937625,-14.0,1572.0,0.0,5.0,1605.0,1494.0,5.0,7.72,1500.0,0.0,-0.006540423724800348,0.0,-0.011822199448943138,16.0,444.0,197.0,0.0,2.457074520957617,1000.0,-0.11559940129518509,51.459439599999996,-0.0012217304763960308,0.0,-9.660255432128906,-0.06781727075576782,0.38193660974502563,-3.0,39.700945999999995,1.4971396923065186,1.0,599.9879913330078,0.0008726646259971648,0.06527531402458793,,,,,,,
18.199917999999997,-2.7913018,0.0,0.001403474947437644,0.0,0.3450884222984314,0.0,0.0,1418.0,-0.00017453292519943296,1500.0,0.0,0.0,39.781014,-0.09016706049442291,1500.0,0.0020943951023931952,-14.0,1572.0,0.0,5.0,1604.0,1495.0,5.0,7.71,1500.0,0.0,-0.006813899613916874,0.0,-0.010857551358640194,16.0,444.0,197.0,0.0,2.457074520957617,1000.0,-0.10971428453922272,51.4594398,-0.0012217304763960308,0.0,-9.668575286865234,0.1299830973148346,0.3516002893447876,-3.0,39.800926,1.4984629154205322,1.0,599.9879913330078,0.0008726646259971648,0.06527531402458793,,,,,,,
18.299909,-2.7913018,0.0,0.002537548542022705,0.0,0.3450884222984314,0.0,0.0,1418.0,-0.00017453292519943296,1500.0,0.0,0.0,39.861396,-0.09016706049442291,1500.0,0.0020943951023931952,-14.0,1572.0,0.0,5.0,1605.0,1494.0,5.0,7.71,1500.0,0.0,-0.00588584877550602,0.0,-0.010031583718955517,16.0,444.0,197.0,0.0,2.457074520957617,1000.0,-0.10640167444944382,51.4594398,-0.0012217304763960308,0.0,-9.68002986907959,0.12150593847036362,0.3814927637577057,-3.0,39.900917,1.496936559677124,1.0,600.7328948974609,0.0008726646259971648,0.06527531402458793,,,,,,,
18.399906,-2.7913018999999997,0.0,0.0014445182168856263,0.0,0.3562203049659729,0.0,0.0,1417.0,-0.00017453292519943296,1500.0,0.0,0.0,39.981058,-0.09710298478603363,1500.0,0.0020943951023931952,-14.0,1572.0,0.0,5.0,1605.0,1495.0,5.0,7.7,1500.0,0.0,-0.005915098357945681,0.0,-0.009982023388147354,14.0,444.0,197.0,0.0,2.456899988032418,1000.0,-0.10371029376983643,51.4594399,-0.0012217304763960308,0.0,-9.662176132202148,0.11585450172424316,0.3601551055908203,-3.0,40.000914,1.4951341152191162,1.0,599.9879913330078,0.0008726646259971648,0.06527531402458793,,,,,,,
18.49993,-2.7913018999999997,0.0,0.002081963699311018,0.0,0.3562203049659729,0.0,0.0,1417.0,-0.00017453292519943296,1500.0,0.0,0.0,40.061955999999995,-0.09710298478603363,1500.0,0.0020943951023931952,-14.0,1572.0,0.0,5.0,1605.0,1495.0,5.0,7.7,1500.0,0.0,-0.005320743657648563,0.0,-0.009603888727724552,14.0,444.0,197.0,0.0,2.456899988032418,1000.0,-0.10293441265821457,51.4594399,-0.0012217304763960308,0.0,-9.65849494934082,0.05651438981294632,0.3548779785633087,-3.0,40.100938,1.497992753982544,1.0,600.7328948974609,0.0008726646259971648,0.06527531402458793,,,,,,,
18.599928999999996,-2.7913018999999997,0.0,0.001790881040506065,0.0,0.3784840703010559,0.0,0.0,1418.0,-0.00017453292519943296,1500.0,0.0,0.0,40.180959,-0.09710298478603363,1500.0,0.0020943951023931952,-14.0,1572.0,0.0,5.0,1605.0,1494.0,5.0,7.63,1500.0,0.0,-0.0056027984246611595,0.0,-0.009451032616198063,16.0,444.0,197.0,0.0,2.456899988032418,1000.0,-0.10214753448963165,51.459440099999995,-0.0012217304763960308,0.0,-9.647385597229004,0.09607446193695068,0.3615807890892029,-3.0,40.200936999999996,1.4969377517700195,1.0,599.9879913330078,0.0008726646259971648,0.06527531402458793,,,,,,,
18.700047999999995,-2.7913018999999997,0.0,0.017209697514772415,0.0,0.3784840703010559,0.0,0.0,1418.0,-0.00017453292519943296,1500.0,0.0,0.0,40.261399,-0.09710298478603363,1500.0,0.0027925268031909274,-14.0,1572.0,0.0,5.0,1605.0,1494.0,5.0,7.63,1500.0,0.0,0.00014121390995569527,0.0,-0.008630574680864811,16.0,444.0,197.0,0.0,2.456899988032418,1000.0,-0.10170626640319824,51.459440099999995,-0.0012217304763960308,0.0,-9.84482479095459,0.11302877962589264,0.8666533827781677,-3.0,40.301055999999996,1.21006178855896,1.0,599.9879913330078,0.0008726646259971648,0.06544984694978735,,,,,,,
18.799920999999998,-2.7913021,0.0,0.005617152899503708,0.0,0.3784840703010559,0.0,0.0,1418.0,-0.00017453292519943296,1500.0,0.0,0.0,40.380976,-0.11097484081983566,1500.0,0.0,-14.0,1572.0,0.0,5.0,1604.0,1495.0,5.0,7.54,1500.0,0.0,-0.013215414248406887,0.0,-0.006003988441079855,16.0,444.0,197.0,0.0,2.4574235868080163,1000.0,-0.10178964585065842,51.459440099999995,-0.0012217304763960308,0.0,-10.421792984008789,0.09607446193695068,-0.3019919991493225,-3.0,40.400929,1.470212697982788,1.0,599.9760284423828,0.0008726646259971648,0.06544984694978735,,,,,,,
18.899919999999995,-2.7913021,0.0,0.010761722922325134,0.0,0.3784840703010559,0.0,0.0,1418.0,-0.00017453292519943296,1500.0,0.0,0.0,40.46133,-0.11097484081983566,1500.0,-0.0013962634015954637,-14.0,1572.0,0.0,5.0,1605.0,1494.0,5.0,7.54,1500.0,0.0,0.001287749852053821,0.0,-0.10237246751785278,16.0,444.0,197.0,0.0,2.456899988032418,1000.0,-0.10495575517416,51.459440099999995,-0.0012217304763960308,0.0,-12.7274751663208,0.0649915486574173,0.4525229036808014,-3.0,40.500927999999995,1.9066238403320312,1.0,599.9760284423828,0.0008726646259971648,0.06597344572538566,,,,,,,
18.999956999999995,-2.7913021,0.0,0.03832634910941124,0.0,0.3896159529685974,0.0,0.0,1417.0,0.0,1500.0,0.0,0.0,40.581621999999996,-0.11097484081983566,1500.0,0.01064650843716541,-14.0,1572.0,0.0,5.0,1605.0,1495.0,5.0,7.51,1500.0,0.0,-0.026661787182092667,0.0,-0.39955848455429077,16.0,444.0,197.0,0.0,2.4565509221820188,1000.0,-0.13562490046024323,51.459440199999996,-0.0012217304763960308,0.0,-11.923219680786133,-0.06781727075576782,0.5931056141853333,-3.0,40.600964999999995,2.3990049362182617,1.0,599.9760284423828,0.0008726646259971648,0.057944931166211744,,,,,,,
19.099956999999996,-2.7913021,0.0,0.06242251396179199,0.0,0.3896159529685974,0.0,0.0,1417.0,-0.00017453292519943296,1500.0,0.0,0.0,40.661933999999995,-0.11097484081983566,1500.0,0.026354471705114377,-14.0,1572.0,0.0,5.0,1605.0,1495.0,5.0,7.51,1500.0,0.0,-0.08683217316865921,0.0,-0.5862646102905273,16.0,444.0,197.0,0.0,2.4560273234064205,1000.0,-0.17343288660049438,51.459440199999996,-0.0012217304763960308,0.0,-11.960829734802246,0.22040612995624542,0.5194703340530396,-3.0,40.700965,2.798793315887451,1.0,599.9760284423828,0.0008726646259971648,0.0439822971502571,,,,,,,
19.199920999999996,-2.7913021,0.0,0.1403767168521881,0.0,0.3896159529685974,0.0,0.0,1418.0,0.0,1500.0,0.0,0.0,40.780997,-0.11097484081983566,1500.0,0.03822271061867582,-14.0,1572.0,0.0,5.0,1605.0,1494.0,5.0,7.45,1500.0,0.0,-0.23771217465400696,0.0,-0.8750011920928955,16.0,444.0,197.0,0.0,2.4488714734732437,1000.0,-0.2591947019100189,51.459440199999996,-0.0012217304763960308,0.0,-11.601249694824219,0.3786464035511017,-0.16841672360897064,-3.0,40.800929,2.7887299060821533,1.0,599.9760284423828,0.0008726646259971648,0.013089969389957472,,,,,,,
19.299893999999995,-2.7913021,0.0,0.24878114461898804,0.0,0.3896159529685974,0.0,0.0,1418.0,0.0,1500.0,0.0,0.0,40.861335,-0.11097484081983566,1500.0,0.04066617157146788,-14.0,1572.0,0.0,5.0,1605.0,1494.0,5.0,7.45,1500.0,0.0,-0.3247915804386139,0.0,-1.0168402194976807,16.0,444.0,197.0,0.0,2.438399497961278,1000.0,-0.33617010712623596,51.459440199999996,-0.0012217304763960308,0.0,-10.75064468383789,0.24583759903907776,-0.8359991312026978,-3.0,40.900901999999995,2.805659055709839,1.0,600.2281036376953,0.0008726646259971648,-0.009773843811168246,,,,,,,
19.399885999999995,-2.7913014,0.0,0.5044485330581665,0.0,0.3116927742958069,0.0,0.0,1418.0,0.0,1500.0,0.0,0.0,40.980999,-0.06242334470152855,1500.0,0.03874630939427412,-14.0,1572.0,0.0,5.0,1604.0,1495.0,5.0,7.41,1500.0,0.0,-0.4565824270248413,0.0,-1.0540287494659424,16.0,444.0,197.0,0.0,2.413790355508158,1000.0,-0.4671643078327179,51.459439499999995,-0.0012217304763960308,0.0,-8.125187873840332,0.5340610146522522,-0.859982967376709,-3.0,41.000893999999995,2.778104305267334,1.0,599.9760284423828,0.0008726646259971648,-0.045727626402251434,,,,,,,
19.499918,-2.7913014,0.0,0.7025067806243896,0.0,0.3116927742958069,0.0,0.0,1418.0,0.0,1500.0,0.0,0.0,41.061912,-0.06242334470152855,1500.0,0.026354471705114377,-14.0,1572.0,0.0,5.0,1605.0,1494.0,5.0,7.41,1500.0,0.0,-0.5400816202163696,0.0,-0.8853133916854858,16.0,444.0,197.0,0.0,2.4003513202678013,1000.0,-0.5482409000396729,51.459439499999995,-0.0012217304763960308,0.0,-7.741389274597168,0.4125550389289856,-0.8379301428794861,-3.0,41.100926,2.250328540802002,1.0,599.9760284423828,0.0008726646259971648,-0.06894050545377602,,,,,,,
19.599894,-2.7913001,0.0,0.9248179197311401,0.0,0.18924203515052795,0.0,0.0,1417.0,0.0,1500.0,0.0,0.0,41.181021,0.027743710204958916,1500.0,0.020071286397934793,-14.0,1572.0,0.0,5.0,1605.0,1495.0,5.0,7.37,1500.0,0.0,-0.6660834550857544,0.0,-0.6743038296699524,15.0,444.0,197.0,0.0,2.395115332511818,1000.0,-0.6449747085571289,51.459438399999996,-0.0012217304763960308,0.0,-8.498077392578125,0.44081225991249084,0.19415199756622314,-3.0,41.200902,1.7939412593841553,1.0,599.9760284423828,0.0008726646259971648,-0.0973893722612836,,,,,,,
19.699908999999998,-2.7913001,0.0,1.0051594972610474,0.0,0.18924203515052795,0.0,0.0,1417.0,-0.00017453292519943296,1500.0,0.0,0.0,41.261305,0.027743710204958916,1500.0,0.014835298641951801,-14.0,1572.0,0.0,5.0,1605.0,1495.0,5.0,7.37,1500.0,0.0,-0.7430642247200012,0.0,-0.5733676552772522,15.0,444.0,197.0,0.0,2.3970351946890123,1000.0,-0.6961838006973267,51.459438399999996,-0.0012217304763960308,0.0,-8.556350708007812,0.5340610146522522,-0.846463680267334,-3.0,41.300917,-1.1315417289733887,1.0,599.9760284423828,0.0008726646259971648,-0.11885692206081386,,,,,,,
19.79992,-2.7912977999999997,0.0,0.9736810922622681,0.0,0.07792319357395172,0.0,0.0,1418.0,-0.00017453292519943296,1500.0,0.0,0.0,41.381009,0.18727004528045654,1500.0,0.016755160819145562,-14.0,1572.0,0.0,5.0,1605.0,1494.0,5.0,7.45,1500.0,0.0,-0.5976455807685852,0.0,-0.46740812063217163,16.0,444.0,197.0,0.0,2.4116959604057646,1000.0,-0.7569398283958435,51.4594374,-0.0012217304763960308,0.0,-9.477956771850586,0.5566667318344116,0.6800713539123535,-3.0,41.400928,-1.4598064422607422,1.0,599.8920745849609,0.0008726646259971648,-0.13631021458075715,,,,,,,
19.899893999999996,-2.7912977999999997,0.0,0.895855724811554,0.0,0.07792319357395172,0.0,0.0,1418.0,-0.00017453292519943296,1500.0,0.0,0.0,41.461408999999996,0.18727004528045654,1500.0,0.030543261909900768,-14.0,1572.0,0.0,5.0,1605.0,1494.0,5.0,7.45,1500.0,0.0,-0.5835738182067871,0.0,-0.42861810326576233,16.0,444.0,197.0,0.0,2.420422606665736,1000.0,-0.791694164276123,51.4594374,-0.0012217304763960308,0.0,-8.250504493713379,0.5990525484085083,0.9198898077011108,-3.0,41.500901999999996,0.6447345018386841,1.0,599.9760284423828,0.0008726646259971648,-0.12932889757277982,,,,,,,
19.999916,-2.7912946,0.0,0.9002130627632141,0.0,-0.011131884530186653,0.0,0.0,1418.0,-0.00017453292519943296,1500.0,0.0,0.0,41.581804999999996,0.4092197120189667,1500.0,0.0317649923862968,-14.0,1572.0,0.0,5.0,1604.0,1495.0,5.0,7.51,1500.0,0.0,-0.7520815134048462,0.0,-0.22185690701007843,16.0,444.0,197.0,0.0,2.416582882311349,1000.0,-0.828208863735199,51.4594366,-0.0012217304763960308,0.0,-7.799386024475098,0.6329611539840698,-0.1656482070684433,-3.0,41.600924,1.3459434509277344,1.0,599.8920745849609,0.0008726646259971648,-0.10053096491487337,,,,,,,
20.099860999999997,-2.7912946,0.0,0.9757728576660156,0.0,-0.011131884530186653,0.0,0.0,1418.0,-0.00017453292519943296,1500.0,0.0,0.0,41.661972,0.4092197120189667,1500.0,-0.006806784082777886,-14.0,1572.0,0.0,5.0,1605.0,1494.0,5.0,7.51,1500.0,0.0,-0.8081786632537842,0.0,-0.09199047088623047,16.0,444.0,197.0,0.0,2.4038419787717897,1000.0,-0.8369565606117249,51.4594366,-0.0012217304763960308,0.0,-9.253461837768555,0.7149070501327515,0.9839335680007935,-3.0,41.700869,2.4193639755249023,1.0,599.9760284423828,0.0008726646259971648,-0.06544984694978735,,,,,,,
20.199878999999996,-2.7912912999999997,0.0,1.0686219930648804,0.0,-0.11131884157657623,0.0,0.0,1417.0,-0.00017453292519943296,1500.0,0.0,0.0,41.781006,0.6381052732467651,1500.0,-0.05777039824101231,-14.0,1572.0,0.0,5.0,1605.0,1495.0,5.0,7.61,1500.0,0.0,-0.9512460827827454,0.0,-0.13950686156749725,16.0,444.0,197.0,0.0,2.3774875070666757,1000.0,-0.8420137763023376,51.4594357,-0.0012217304763960308,0.0,-11.971318244934082,0.7149070501327515,0.7232550382614136,-3.0,41.800886999999996,2.404289484024048,1.0,599.8920745849609,0.0008726646259971648,0.010471975511965976,,,,,,,
20.299912,-2.7912912999999997,0.0,1.1243345737457275,0.0,-0.11131884157657623,0.0,0.0,1417.0,-0.00017453292519943296,1500.0,0.0,0.0,41.861323999999996,0.6381052732467651,1500.0,-0.08621926504851989,-14.0,1572.0,0.0,5.0,1605.0,1495.0,5.0,7.61,1500.0,0.0,-0.9416756629943848,0.0,-0.40395063161849976,16.0,444.0,197.0,0.0,2.3582888852947383,1000.0,-0.8591428995132446,51.4594357,-0.0013962634015954637,0.0,-12.635891914367676,0.6612183451652527,1.4805757999420166,-3.0,41.90092,0.29935526847839355,1.0,599.8920745849609,0.0008726646259971648,0.053407075111026485,,,,,,,
20.399929,-2.7912877,0.0,1.0268203020095825,0.0,-0.23376958072185516,0.0,0.0,1418.0,-0.00017453292519943296,1500.0,0.0,0.0,41.981023,0.8877987265586853,1500.0,-0.10070549784007282,-14.0,1572.0,0.0,5.0,1605.0,1494.0,5.0,7.7,1500.0,0.0,-0.8120110034942627,0.0,-0.5282195806503296,16.0,444.0,197.0,0.0,2.3221605697784558,1000.0,-0.916281521320343,51.459434599999994,-0.0013962634015954637,0.0,-7.866171836853027,0.8844501972198486,0.34065255522727966,-3.0,42.000937,1.1805602312088013,1.0,599.8920745849609,0.0008726646259971648,0.08168140899333462,,,,,,,
20.499925999999995,-2.7912877,0.0,1.0630450248718262,0.0,-0.23376958072185516,0.0,0.0,1418.0,-0.00017453292519943296,1500.0,0.0,0.0,42.06193,0.8877987265586853,1500.0,-0.10245082709206714,-14.0,1572.0,0.0,5.0,1605.0,1494.0,5.0,7.7,1500.0,0.0,-0.7518263459205627,0.0,-0.3209616541862488,16.0,444.0,197.0,0.0,2.294235301746546,1000.0,-0.9480651021003723,51.459434599999994,-0.0013962634015954637,0.0,-5.860404014587402,0.983350396156311,0.5211454033851624,-3.0,42.100933999999995,1.89637291431427,1.0,600.0120239257812,0.0008726646259971648,0.1048942880448592,,,,,,,
20.599889999999995,-2.7912841999999998,0.0,1.1090924739837646,0.0,-0.3562203049659729,0.0,0.0,1418.0,0.0,1500.0,0.0,0.0,42.180963,1.1305562257766724,1500.0,-0.1228711793404008,-14.0,1572.0,0.0,5.0,1604.0,1495.0,5.0,7.73,1500.0,0.0,-0.7249399423599243,0.0,0.03789655119180679,16.0,444.0,197.0,0.0,2.2621212435098506,1000.0,-0.961054801940918,51.459433499999996,-0.0015707963267948964,0.0,-8.418067932128906,1.0426905155181885,0.8982710838317871,-3.0,42.200897999999995,2.5216310024261475,1.0,600.0120239257812,0.0008726646259971648,0.16196655458507378,,,,,,,
20.699905,-2.7912841999999998,0.0,1.105952501296997,0.0,-0.3562203049659729,0.0,0.0,1418.0,0.0,1500.0,0.0,0.0,42.261427,1.1305562257766724,1500.0,-0.15044738152191123,-14.0,1572.0,0.0,5.0,1605.0,1494.0,5.0,7.73,1500.0,0.0,-0.7156015634536743,0.0,0.02069735899567604,16.0,444.0,197.0,0.0,2.25007847167109,1000.0,-0.9581292271614075,51.459433499999996,-0.0015707963267948964,0.0,-11.039161682128906,0.8138072490692139,2.2542717456817627,-3.0,42.300913,3.567091226577759,1.0,600.0120239257812,0.0008726646259971648,0.204378055408536,,,,,,,
20.799890999999995,-2.7912803,0.0,1.0470489263534546,0.0,-0.4564072787761688,0.0,0.0,1417.0,0.0,1500.0,0.0,0.0,42.381029999999996,1.4010573625564575,1500.0,-0.20106192982974674,-14.0,1572.0,0.0,5.0,1605.0,1495.0,5.0,7.82,1500.0,0.0,-0.6839829087257385,0.0,-0.28329089283943176,16.0,444.0,197.0,0.0,2.2464132802419017,1000.0,-0.9730949997901917,51.4594326,-0.0015707963267948964,0.0,-10.757177352905273,1.0426905155181885,4.7132978439331055,-3.0,42.400898999999995,3.10178804397583,1.0,599.9280700683594,0.0008726646259971648,0.2361430477948328,,,,,,,
20.899926999999998,-2.7912803,0.0,0.8657470941543579,0.0,-0.4564072787761688,0.0,0.0,1417.0,0.0,1500.0,0.0,0.0,42.461403,1.4010573625564575,1500.0,-0.21432643214490368,-14.0,1572.0,0.0,5.0,1605.0,1495.0,5.0,7.82,1500.0,0.0,-0.7076746821403503,0.0,-0.3396085798740387,16.0,444.0,197.0,0.0,2.2451915497655057,1000.0,-1.0005481243133545,51.4594326,-0.0017453292519943296,0.0,-7.326770782470703,1.0257362127304077,1.9451018571853638,-3.0,42.500935,1.6040974855422974,1.0,600.0120239257812,0.0006981317007977319,0.22287854547967587,,,,,,,
21.099919999999997,-2.791276,0.0,0.7651995420455933,0.0,-0.5454623699188232,0.0,0.0,1418.0,0.00034906585039886593,1500.0,0.0,0.0,42.661936,1.6993021965026855,1500.0,-0.21956241990088665,-14.0,1572.0,0.0,5.0,1605.0,1494.0,5.0,7.930000000000001,1500.0,0.0,-0.7144302129745483,0.0,0.21269463002681732,16.0,444.0,197.0,0.0,2.2617721776594517,1000.0,-1.022586703300476,51.4594318,-0.0017453292519943296,0.0,-7.00795841217041,1.0313876867294312,2.7164244651794434,-3.0,42.700928,4.056546688079834,1.0,599.9280700683594,0.0006981317007977319,0.21205750411731106,,,,,,,
21.199943999999995,-2.7912725999999997,0.0,0.8268940448760986,0.0,-0.6567811965942383,0.0,0.0,1418.0,0.00034906585039886593,1500.0,0.0,0.0,42.78106,1.9351238012313843,1500.0,-0.2288126649364566,-14.0,1572.0,0.0,5.0,1604.0,1495.0,5.0,7.98,1500.0,0.0,-0.8205379843711853,0.0,0.22103522717952728,16.0,444.0,197.0,0.0,2.2521728667734826,1000.0,-0.9946778416633606,51.4594308,-0.0019198621771937625,0.0,-10.830676078796387,1.0003046989440918,3.4756758213043213,-3.0,42.800951999999995,4.666274070739746,1.0,600.0120239257812,0.0006981317007977319,0.2426007660272118,,,,,,,
21.299948,-2.7912725999999997,0.0,0.821485698223114,0.0,-0.6567811965942383,0.0,0.0,1418.0,0.0005235987755982988,1500.0,0.0,0.0,42.86143,1.9351238012313843,1500.0,-0.23911010752322318,-14.0,1572.0,0.0,5.0,1605.0,1494.0,5.0,7.98,1500.0,0.0,-0.8156610727310181,0.0,-0.023143168538808823,16.0,444.0,197.0,0.0,2.2362903705803343,1000.0,-0.9881279468536377,51.4594308,-0.0019198621771937625,0.0,-14.048677444458008,1.0652962923049927,3.4647045135498047,-3.0,42.900956,4.245752811431885,1.0,600.0120239257812,0.0006981317007977319,0.2584832622203602,,,,,,,
21.399909,-2.7912687999999997,0.0,0.6657290458679199,0.0,-0.8237594366073608,0.0,0.0,1418.0,0.0006981317007977319,1500.0,0.0,0.0,42.98103,2.1986889839172363,1500.0,-0.23736477827122882,-14.0,1572.0,0.0,5.0,1604.0,1495.0,5.0,8.0,1500.0,0.0,-0.5996142029762268,0.0,-0.34971144795417786,16.0,444.0,197.0,0.0,2.2076669708476278,1000.0,-1.0223337411880493,51.4594293,-0.0019198621771937625,0.0,-8.429290771484375,1.3054823875427246,1.8760175704956055,-3.0,43.000917,1.4120204448699951,1.0,600.0120239257812,0.0005235987755982988,0.23771384412162772,,,,,,,
