time_index,acceleration_z,servos_1,servos_6,position_y,airspeed_0,axis_rate_roll,acceleration_y,tx_controls_2,position_z,velocity_y,tx_controls_0,servos_2,attitude_pitch,wind_x,mode_0,acceleration_x,wind_y,tx_controls_6,servos_3,time_actual,servos_0,velocity_z,servos_5,tx_controls_3,tx_controls_5,axis_rate_yaw,servos_7,attitude_roll,velocity_x,servos_4,mode_2,altitude_baro,axis_rate_pitch,position_x,time_flight,tx_controls_4,attitude_yaw,tx_controls_1,mode_1,tx_controls_7,current_0,current_1,magnetometer_0,rpm_1,global_position_latitude,airspeed_1,magnetometer_2,battery_1,rpm_0,current_2,magnetometer_1,current_3,battery_0,altitude_gps,gps_sat_count_0,global_position_longitude
0.0,-9.566842079162598,0.0,0.0,,0.0,5.6794498798207794e-05,0.18614068627357483,1490.0,,,1020.0,0.0,,,0.0,2.1482348442077637,,1500.0,0.0,,0.0,,0.0,1603.0,1500.0,-1.5476874515216115e-06,0.0,,,0.0,0.0,0.045085884630680084,-2.5318558619592814e-05,,3.919381,1417.0,,1568.0,0.0,1501.0,,,,,,,,,,,,,,,,
0.1001780000000001,-9.728073120117188,0.0,0.0,,0.0,-0.00010486068380488931,0.1821531355381012,1490.0,,,1019.0,0.0,,,0.0,2.1767635345458984,,1500.0,0.0,,0.0,,0.0,1602.0,1500.0,-9.102900061214621e-06,0.0,,,0.0,0.0,-0.010692709125578403,3.28715965355265e-05,,4.019559,1418.0,,1569.0,0.0,1500.0,,,,,,,,,,,,,,,,
0.20019699999999974,-9.540703773498535,0.0,0.0,,0.0,-9.765287830101736e-05,0.0940178632736206,1491.0,,,1020.0,0.0,,,5.0,2.1663060188293457,,1500.0,0.0,,0.0,,0.0,1602.0,1500.0,1.3234658197271507e-05,0.0,,,0.0,1.0,-0.05346354469656944,1.5651082914552346e-05,,4.119578,1418.0,,1568.0,5.0,1500.0,,,,,,,,,,,,,,,,
0.3002259999999999,-9.540474891662598,0.0,0.0,,0.0,3.454672510500602e-05,0.06977750360965729,1491.0,,,1019.0,0.0,,,5.0,2.1514296531677246,,1500.0,0.0,,0.0,,0.0,1602.0,1500.0,3.1757383774886323e-06,0.0,,,0.0,1.0,-0.10158073902130127,-1.182880541563797e-07,,4.219607,1418.0,,1568.0,5.0,1500.0,,,,,,,,,,,,,,,,
0.40020500000000014,-9.609001159667969,0.0,0.0,,0.0,5.61930850484984e-05,0.15220923721790314,1490.0,,,1020.0,0.0,,,5.0,2.1757450103759766,,1500.0,0.0,,0.0,,0.0,1603.0,1501.0,-2.1058807342584046e-05,0.0,,,0.0,1.0,-0.08019531518220901,1.3953948603048517e-05,,4.319586,1417.0,,1568.0,5.0,1500.0,,,,,,,,,,,,,,,,
0.5001829999999994,-9.584708213806152,0.0,0.0,,0.0,-2.6046971945058587e-05,0.18907709419727325,1491.0,,,1020.0,0.0,,,5.0,2.1671977043151855,,1500.0,0.0,,0.0,,0.0,1602.0,1500.0,1.148213211816076e-05,0.0,,,0.0,1.0,-0.11761979758739471,-2.5910201803588766e-06,,4.419563999999999,1418.0,,1568.0,5.0,1500.0,,,,,,,,,,,,,,,,
0.6001850000000002,-9.550325393676758,0.0,0.0,,0.0,-7.56669019254231e-05,0.12824736535549164,1491.0,,,1020.0,0.0,,,5.0,2.160036087036133,,1500.0,0.0,,0.0,,0.0,1602.0,1500.0,-1.5748526465530866e-06,0.0,,,0.0,1.0,0.024058595299720764,2.0442954388249222e-06,,4.519566,1418.0,,1568.0,5.0,1500.0,,,,,,,,,,,,,,,,
0.7002009999999994,-9.526387214660645,0.0,0.0,,0.0,-6.726821913419237e-06,0.08567552268505096,1491.0,,,1020.0,0.0,,,5.0,2.1632614135742188,,1500.0,0.0,,0.0,,0.0,1602.0,1501.0,-5.779008464930706e-06,0.0,,,0.0,1.0,-0.17108334600925446,-3.8033289636000777e-06,,4.619581999999999,1417.0,,1568.0,5.0,1500.0,,,,,,,,,,,,,,,,
0.800189,-9.585625648498535,0.0,0.0,,0.0,4.887103783361967e-05,0.12200981378555298,1490.0,,,1020.0,0.0,,,5.0,2.1627490520477295,,1501.0,0.0,,0.0,,0.0,1603.0,1500.0,-1.1123321743697004e-06,0.0,,,0.0,1.0,0.11761979758739471,3.6350243022417222e-06,,4.71957,1417.0,,1568.0,5.0,1500.0,,,,,,,,,,,,,,,,
0.900204,-9.588889122009277,0.0,0.0,,0.0,8.089409718289657e-06,0.15345637500286102,1491.0,,,1020.0,0.0,,,5.0,2.1648995876312256,,1500.0,0.0,,0.0,,0.0,1602.0,1500.0,-2.1414494539335867e-06,0.0,,,0.0,1.0,0.17642970383167267,-4.7795001647314035e-06,,4.819585,1418.0,,1568.0,5.0,1500.0,,,,,,,,,,,,,,,,
1.000225,-9.588338851928711,0.0,0.0,0.0,0.0,-3.601628320688852e-05,0.1540629267692566,1490.0,0.0,0.0,1019.0,0.0,-0.05305800926062762,0.0,5.0,2.156923294067383,0.0,1500.0,0.0,4.899907,0.0,0.0,0.0,1603.0,1500.0,6.602903100909647e-06,0.0,0.008028514559173916,0.0,0.0,1.0,-0.010692709125578403,5.8705969148779084e-08,0.0,4.919606,1417.0,0.0,1569.0,5.0,1501.0,,,,,,,,,,,,,,,,
1.100209,-9.549531936645508,0.0,0.0,0.0,0.0,-3.893594260019926e-05,0.11772920191287994,1491.0,0.0,0.0,1019.0,0.0,-0.05305800926062762,0.0,5.0,2.158500909805298,0.0,1500.0,0.0,4.979829,0.0,0.0,0.0,1602.0,1500.0,2.3902808981271025e-06,0.0,0.008028514559173916,0.0,0.0,1.0,0.021385418251156807,1.3970739397690605e-06,0.0,5.01959,1418.0,0.0,1568.0,5.0,1500.0,,,,,,,,,,,,,,,,
1.2002190000000001,-9.546545028686523,0.0,0.0,0.0,0.0,2.1844993741196878e-05,0.10371537506580353,1491.0,0.0,0.0,1019.0,0.0,-0.05305800926062762,0.0,5.0,2.1457338333129883,0.0,1500.0,0.0,5.1006409999999995,0.0,0.0,0.0,1602.0,1500.0,1.3466042057560264e-05,0.0,0.008028514559173916,0.0,0.0,1.0,0.155044287443161,-2.349510437969026e-06,0.0,5.1196,1418.0,0.0,1568.0,5.0,1500.0,,,,,,,,,,,,,,,,
1.300253,-9.56867790222168,0.0,0.0,0.0,0.0,2.1866988308152524e-05,0.12997841835021973,1491.0,0.0,0.0,1020.0,0.0,-0.05305800926062762,0.0,5.0,2.170612335205078,0.0,1500.0,0.0,5.17997,0.0,0.0,0.0,1602.0,1500.0,-1.1549821540871518e-05,0.0,0.008028514559173916,0.0,0.0,1.0,0.17375652492046356,-4.393969375667825e-07,0.0,5.219634,1418.0,0.0,1568.0,5.0,1500.0,,,,,,,,,,,,,,,,
1.4002009999999996,-9.578128814697266,0.0,0.0,0.0,0.0,-2.236730425943123e-05,0.15942484140396118,1491.0,0.0,0.0,1020.0,0.0,-0.05305800926062762,0.0,5.0,2.1531357765197754,0.0,1500.0,0.0,5.299945999999999,0.0,0.0,0.0,1602.0,1500.0,-1.8863463072286458e-05,0.0,0.008028514559173916,0.0,0.0,1.0,0.0374244824051857,-1.3332608690001106e-05,0.0,5.319582,1418.0,0.0,1568.0,5.0,1500.0,,,,,,,,,,,,,,,,
1.5002219999999995,-9.541374206542969,0.0,0.0,0.0,0.0,-3.381263484466042e-05,0.12276481091976166,1491.0,0.0,0.0,1020.0,0.0,-0.05305800926062762,0.0,5.0,2.1692609786987305,0.0,1500.0,0.0,5.3799459999999995,0.0,0.0,0.0,1602.0,1500.0,1.0265790151048246e-06,0.0,0.008028514559173916,0.0,0.0,1.0,0.21652735769748688,-5.497961075639162e-06,0.0,5.4196029999999995,1418.0,0.0,1568.0,5.0,1500.0,,,,,,,,,,,,,,,,
1.6002429999999994,-9.547757148742676,0.0,0.0,0.0,0.0,-2.2490833976368345e-06,0.11499282717704773,1491.0,0.0,0.0,1019.0,0.0,-0.05305800926062762,0.0,5.0,2.1609385013580322,0.0,1500.0,0.0,5.499950999999999,0.0,0.0,0.0,1603.0,1500.0,-4.830346219181599e-06,0.0,0.008028514559173916,0.0,0.0,1.0,0.01336588617414236,1.6752424789862136e-06,0.0,5.519623999999999,1417.0,0.0,1568.0,5.0,1500.0,,,,,,,,,,,,,,,,
1.7002389999999994,-9.551071166992188,0.0,0.0,0.0,0.0,2.311646054416261e-05,0.12141527235507965,1490.0,0.0,0.0,1020.0,0.0,-0.05305800926062762,0.0,5.0,2.159336805343628,0.0,1501.0,0.0,5.580584,0.0,0.0,0.0,1603.0,1500.0,-2.362436436706218e-06,0.0,0.008028514559173916,0.0,0.0,1.0,0.16841016709804535,2.0839701073071307e-06,0.0,5.619619999999999,1417.0,0.0,1568.0,5.0,1500.0,,,,,,,,,,,,,,,,
1.8001729999999996,-9.571196556091309,0.0,0.0,0.0,0.0,2.3111654756680682e-06,0.14561596512794495,1491.0,0.0,0.0,1020.0,0.0,-0.05305800926062762,0.0,5.0,2.179997444152832,0.0,1500.0,0.0,5.7006,0.0,0.0,0.0,1602.0,1500.0,-1.1813002535162346e-05,0.0,0.008028514559173916,0.0,0.0,1.0,0.04544401541352272,-2.8543025122041537e-06,0.0,5.719554,1418.0,0.0,1568.0,5.0,1500.0,,,,,,,,,,,,,,,,
1.9002279999999998,-9.57754135131836,0.0,0.0,0.0,0.0,-2.5727686010597198e-05,0.14958173036575317,1491.0,0.0,0.0,1019.0,0.0,-0.05305800926062762,0.0,5.0,2.170163631439209,0.0,1500.0,0.0,5.779953,0.0,0.0,0.0,1602.0,1500.0,-4.368334339611708e-06,0.0,0.008028514559173916,0.0,0.0,1.0,0.09088803082704544,6.35674275210496e-06,0.0,5.819609,1418.0,0.0,1568.0,5.0,1500.0,,,,,,,,,,,,,,,,
2.0002,-9.556452751159668,0.0,0.0,0.0,0.0,-3.7296104897551396e-05,0.11968139559030533,1490.0,0.0,0.0,1019.0,0.0,-0.05305800926062762,0.0,5.0,2.1553666591644287,0.0,1500.0,0.0,5.899959,0.0,0.0,0.0,1603.0,1500.0,-6.809897881803288e-06,0.0,0.008028514559173916,0.0,0.0,1.0,0.06415625661611557,6.7164793873734186e-06,0.0,5.919581,1417.0,0.0,1569.0,5.0,1501.0,,,,,,,,,,,,,,,,
2.1002379999999996,-9.562711715698242,0.0,0.0,0.0,0.0,6.73636542205579e-06,0.11290793120861053,1491.0,0.0,0.0,1020.0,0.0,-0.05305800926062762,0.0,5.0,2.1511502265930176,0.0,1500.0,0.0,5.979932,0.0,0.0,0.0,1602.0,1500.0,-5.724111448090873e-06,0.0,0.008028514559173916,0.0,0.0,1.0,0.09088803082704544,6.816996971159648e-07,0.0,6.019619,1418.0,0.0,1568.0,5.0,1500.0,,,,,,,,,,,,,,,,
2.2002479999999998,-9.557718276977539,0.0,0.0,0.0,0.0,-2.733520338284659e-06,0.1399005502462387,1491.0,0.0,0.0,1019.0,0.0,-0.05305800926062762,0.0,5.0,2.162147283554077,0.0,1500.0,0.0,6.100222,0.0,0.0,0.0,1602.0,1500.0,-2.8801077775732265e-06,0.0,0.008028514559173916,0.0,0.0,1.0,0.20316147804260254,5.4541344881811166e-06,0.0,6.119629,1418.0,0.0,1568.0,5.0,1500.0,,,,,,,,,,,,,,,,
2.300238,-9.561077117919922,0.0,0.0,0.0,0.0,-1.8221936921575825e-05,0.13847090303897858,1490.0,0.0,0.0,1019.0,0.0,-0.05305800926062762,0.0,5.0,2.155405044555664,0.0,1500.0,0.0,6.17995,0.0,0.0,0.0,1603.0,1500.0,1.2777908759125647e-05,0.0,0.008028514559173916,0.0,0.0,1.0,0.14435157179832458,-7.731578940185577e-06,0.0,6.219619,1417.0,0.0,1569.0,5.0,1500.0,,,,,,,,,,,,,,,,
2.400186,-9.557403564453125,0.0,0.0,0.0,0.0,-2.534729683252775e-05,0.13348853588104248,1491.0,0.0,0.0,1020.0,0.0,-0.05305800926062762,0.0,5.0,2.167203664779663,0.0,1500.0,0.0,6.2999659999999995,0.0,0.0,0.0,1602.0,1500.0,-2.8795707393304123e-08,0.0,0.008028514559173916,0.0,0.0,1.0,0.09356120228767395,5.214696451133728e-06,0.0,6.319567,1418.0,0.0,1568.0,5.0,1500.0,,,,,,,,,,,,,,,,
2.5002029999999995,-9.556364059448242,0.0,0.0,0.0,0.0,-2.0233910506129274e-05,0.1274421364068985,1491.0,0.0,0.0,1020.0,0.0,-0.05305800926062762,0.0,5.0,2.154024362564087,0.0,1500.0,0.0,6.3799079999999995,0.0,0.0,0.0,1602.0,1500.0,-1.5796090605498374e-05,0.0,0.008028514559173916,0.0,0.0,1.0,0.16841016709804535,-1.7768150908455815e-06,0.0,6.4195839999999995,1418.0,0.0,1568.0,5.0,1500.0,,,,,,,,,,,,,,,,
2.6002319999999997,-9.545737266540527,0.0,0.0,0.0,0.0,1.940796321322036e-05,0.13056564331054688,1491.0,0.0,0.0,1019.0,0.0,-0.05305800926062762,0.0,5.0,2.15977144241333,0.0,1500.0,0.0,6.499905,0.0,0.0,0.0,1603.0,1500.0,4.810055342239097e-06,0.0,0.008028514559173916,0.0,0.0,1.0,0.20583465695381165,-7.018947351457566e-06,0.0,6.519613,1417.0,0.0,1568.0,5.0,1500.0,,,,,,,,,,,,,,,,
2.700275,-9.582091331481934,0.0,0.0,0.0,0.0,-1.3429008895932816e-05,0.12930889427661896,1490.0,0.0,0.0,1019.0,0.0,-0.05305800926062762,0.0,5.0,2.16939640045166,0.0,1500.0,0.0,6.580629,0.0,0.0,0.0,1603.0,1500.0,-1.6711064590853357e-05,0.0,0.008028514559173916,0.0,0.0,1.0,0.06950260698795319,2.2296019512357604e-06,0.0,6.619656,1417.0,0.0,1569.0,5.0,1500.0,,,,,,,,,,,,,,,,
2.800227,-9.565911293029785,0.0,0.0,0.0,0.0,-8.871065134518092e-06,0.13198420405387878,1491.0,0.0,0.0,1020.0,0.0,-0.05305800926062762,0.0,5.0,2.1641440391540527,0.0,1500.0,0.0,6.699942,0.0,0.0,0.0,1602.0,1500.0,3.919111056230244e-06,0.0,0.008028514559173916,0.0,0.0,1.0,0.1924687623977661,4.603827577421739e-06,0.0,6.719608,1418.0,0.0,1568.0,5.0,1500.0,,,,,,,,,,,,,,,,
2.900217,-9.568133354187012,0.0,0.0,0.0,0.0,-7.817904313761666e-06,0.12954092025756836,1491.0,0.0,0.0,1019.0,0.0,-0.05305800926062762,0.0,5.0,2.1650149822235107,0.0,1500.0,0.0,6.779958,0.0,0.0,0.0,1602.0,1500.0,5.1214633612520994e-06,0.0,0.008028514559173916,0.0,0.0,1.0,0.16306380927562714,-1.1569924473477446e-05,0.0,6.819598,1418.0,0.0,1568.0,5.0,1500.0,,,,,,,,,,,,,,,,
3.00018,-9.566024780273438,0.0,0.0,0.0,0.0,2.147513960512882e-06,0.1311129629611969,1490.0,0.0,0.0,1019.0,0.0,-0.05305800926062762,0.0,5.0,2.1736764907836914,0.0,1500.0,0.0,6.899997,0.0,0.0,0.0,1603.0,1500.0,-5.9027972402776944e-06,0.0,0.008028514559173916,0.0,0.0,1.0,0.06682943552732468,3.7915296149669886e-06,0.0,6.919561,1417.0,0.0,1569.0,5.0,1500.0,,,,,,,,,,,,,,,,
3.100203,-9.55584716796875,0.0,0.0,0.0,0.0,6.4689180913247665e-06,0.1279493272304535,1491.0,0.0,0.0,1020.0,0.0,-0.05305800926062762,0.0,5.0,2.1671812534332275,0.0,1500.0,0.0,6.979951,0.0,0.0,0.0,1602.0,1500.0,8.6130013057587e-06,0.0,0.008028514559173916,0.0,0.0,1.0,-0.05880989879369736,-1.653547353074915e-06,0.0,7.019584,1418.0,0.0,1568.0,5.0,1500.0,,,,,,,,,,,,,,,,
3.200225,-9.570443153381348,0.0,0.0,0.0,0.0,-1.258384962816486e-05,0.12620003521442413,1491.0,0.0,0.0,1020.0,0.0,-0.05305800926062762,0.0,5.0,2.1583423614501953,0.0,1500.0,0.0,7.099955,0.0,0.0,0.0,1602.0,1500.0,-5.391633853032759e-06,0.0,0.008028514559173916,0.0,0.0,1.0,0.15771746635437012,2.2526995482640232e-06,0.0,7.119606,1418.0,0.0,1568.0,5.0,1500.0,,,,,,,,,,,,,,,,
3.3002249999999997,-9.558713912963867,0.0,0.0,0.0,0.0,-1.8212501099964553e-05,0.12741874158382416,1490.0,0.0,0.0,1019.0,0.0,-0.05305800926062762,0.0,5.0,2.1556644439697266,0.0,1501.0,0.0,7.179905,0.0,0.0,0.0,1603.0,1500.0,4.428498369494569e-06,0.0,0.008028514559173916,0.0,0.0,1.0,0.042770836502313614,-6.066405325052402e-06,0.0,7.219606,1417.0,0.0,1569.0,5.0,1500.0,,,,,,,,,,,,,,,,
3.400216,-9.576593399047852,0.0,0.0,0.0,0.0,-1.959154927301506e-05,0.11483065783977509,1490.0,0.0,0.0,1019.0,0.0,-0.05305800926062762,0.0,5.0,2.1695454120635986,0.0,1501.0,0.0,7.29997,0.0,0.0,0.0,1603.0,1500.0,-6.486563524740593e-06,0.0,0.008028514559173916,0.0,0.0,1.0,0.21118099987506866,-7.65220903093567e-06,0.0,7.319597,1417.0,0.0,1569.0,5.0,1500.0,,,,,,,,,,,,,,,,
3.500207,-9.549612998962402,0.0,0.0,0.0,0.0,3.987749851819527e-06,0.12664557993412018,1491.0,0.0,0.0,1019.0,0.0,-0.05305800926062762,0.0,5.0,2.1634457111358643,0.0,1500.0,0.0,7.379804999999999,0.0,0.0,0.0,1603.0,1500.0,-4.778753657445903e-07,0.0,0.008028514559173916,0.0,0.0,1.0,0.15771746635437012,-7.4962436772098e-07,0.0,7.419588,1417.0,0.0,1568.0,5.0,1500.0,,,,,,,,,,,,,,,,
3.6002109999999994,-9.583642959594727,0.0,0.0,0.0,0.0,4.472864915952011e-06,0.12182912975549698,1491.0,0.0,0.0,1019.0,0.0,-0.05305800926062762,0.0,5.0,2.167325973510742,0.0,1500.0,0.0,7.499886999999999,0.0,0.0,0.0,1602.0,1500.0,5.54828850531195e-06,0.0,0.008028514559173916,0.0,0.0,1.0,0.17910288274288177,-1.1529918743586154e-05,0.0,7.519591999999999,1418.0,0.0,1568.0,5.0,1500.0,,,,,,,,,,,,,,,,
3.7002189999999993,-9.564229965209961,0.0,0.0,0.0,0.0,-4.872602709492765e-06,0.12831051647663116,1491.0,0.0,0.0,1020.0,0.0,-0.05305800926062762,0.0,5.0,2.16233491897583,0.0,1500.0,0.0,7.580589,0.0,0.0,0.0,1602.0,1500.0,4.173533082500293e-06,0.0,0.008028514559173916,0.0,0.0,1.0,0.17108334600925446,2.1233445728084895e-06,0.0,7.619599999999999,1418.0,0.0,1568.0,5.0,1500.0,,,,,,,,,,,,,,,,
3.800201,-9.566656112670898,0.0,0.0,0.0,0.0,-8.572287482880429e-06,0.1195327416062355,1491.0,0.0,0.0,1020.0,0.0,-0.05305800926062762,0.0,5.0,2.1609206199645996,0.0,1500.0,0.0,7.699986999999999,0.0,0.0,0.0,1602.0,1500.0,2.700923932894488e-06,0.0,0.008028514559173916,0.0,0.0,1.0,0.15771746635437012,-1.772246265615037e-06,0.0,7.719582,1418.0,0.0,1568.0,5.0,1500.0,,,,,,,,,,,,,,,,
3.900236,-9.573995590209961,0.0,0.0,0.0,0.0,2.4872009987303843e-06,0.12742170691490173,1490.0,0.0,0.0,1019.0,0.0,-0.05305800926062762,0.0,5.0,2.1639392375946045,0.0,1500.0,0.0,7.779927,0.0,0.0,0.0,1603.0,1500.0,4.994536931399683e-07,0.0,0.008028514559173916,0.0,0.0,1.0,0.08286849409341812,1.0649926786801648e-05,0.0,7.819617,1417.0,0.0,1569.0,5.0,1500.0,,,,,,,,,,,,,,,,
4.000230999999999,-9.555309295654297,0.0,0.0,0.0,0.0,-1.467770090896729e-05,0.13784633576869965,1491.0,0.0,0.0,1019.0,0.0,-0.05305800926062762,0.0,5.0,2.1580748558044434,0.0,1500.0,0.0,7.899865999999999,0.0,0.0,0.0,1603.0,1500.0,-1.5002044069955479e-05,0.0,0.008028514559173916,0.0,0.0,1.0,0.3074153959751129,-1.8242015472213767e-05,0.0,7.919612,1417.0,0.0,1568.0,5.0,1500.0,,,,,,,,,,,,,,,,
4.100210000000001,-9.558042526245117,0.0,0.0,0.0,0.0,7.158631138101925e-06,0.14036403596401215,1491.0,0.0,0.0,1019.0,0.0,-0.05305800926062762,0.0,5.0,2.1625430583953857,0.0,1500.0,0.0,7.979945,0.0,0.0,0.0,1602.0,1500.0,8.702861048777686e-06,0.0,0.008028514559173916,0.0,0.0,1.0,0.20048829913139343,-9.68879875196112e-06,0.0,8.019591,1418.0,0.0,1568.0,5.0,1500.0,,,,,,,,,,,,,,,,
4.200172,-9.566482543945312,0.0,0.0,0.0,0.0,-1.897714399802951e-05,0.126750186085701,1491.0,0.0,0.0,1019.0,0.0,-0.05305800926062762,0.0,5.0,2.1619720458984375,0.0,1500.0,0.0,8.099968,0.0,0.0,0.0,1602.0,1500.0,-1.176632732111106e-05,0.0,0.008028514559173916,0.0,0.0,1.0,0.15771746635437012,-7.310651184632772e-06,0.0,8.119553,1418.0,0.0,1568.0,5.0,1500.0,,,,,,,,,,,,,,,,
4.300238,-9.555398941040039,0.0,0.0,0.0,0.0,-1.0315616988440785e-06,0.11951670050621033,1490.0,0.0,0.0,1020.0,0.0,-0.05305800926062762,0.0,5.0,2.16097354888916,0.0,1500.0,0.0,8.179929999999999,0.0,0.0,0.0,1603.0,1500.0,-1.1028281594417112e-06,0.0,0.008028514559173916,0.0,0.0,1.0,0.28870314359664917,-8.468648880202346e-06,0.0,8.219619,1418.0,0.0,1568.0,5.0,1500.0,,,,,,,,,,,,,,,,
4.400197,-9.56301212310791,0.0,0.0,0.0,0.0,1.6200490942459125e-05,0.1293071210384369,1490.0,0.0,0.0,1020.0,0.0,-0.05305800926062762,0.0,5.0,2.163461685180664,0.0,1500.0,0.0,8.299952,0.0,0.0,0.0,1603.0,1500.0,-5.792688272844853e-06,0.0,0.008028514559173916,0.0,0.0,1.0,0.21652735769748688,-5.477719978547968e-06,0.0,8.319578,1418.0,0.0,1568.0,5.0,1500.0,,,,,,,,,,,,,,,,
4.500218,-9.64311408996582,0.0,0.0,0.0,0.0,-8.460229989839231e-05,0.12895391881465912,1491.0,0.0,0.0,1019.0,0.0,-0.05305800926062762,0.0,5.0,2.186687469482422,0.0,1500.0,0.0,8.379916,0.0,0.0,0.0,1603.0,1500.0,-1.8973350570176742e-05,0.0,0.008028514559173916,0.0,0.0,1.0,0.09088803082704544,-0.0009612144851716905,0.0,8.419599,1418.0,0.0,1568.0,5.0,1500.0,,,,,,,,,,,,,,,,
4.600251,-9.660478591918945,0.0,0.0,0.0,0.0,-7.489954450158884e-05,0.149638831615448,1491.0,0.0,0.0,1020.0,0.0,-0.05305800926062762,0.0,5.0,2.1288063526153564,0.0,1500.0,0.0,8.499910999999999,0.0,0.0,0.0,1617.0,1500.0,-3.0187188592176568e-05,0.0,0.008028514559173916,0.0,0.0,1.0,0.24593231081962585,-0.0014126836830568896,0.0,8.519632,1418.0,0.0,1568.0,5.0,1500.0,,,,,,,,,,,,,,,,
4.700214000000001,-9.790377616882324,0.0,0.0,0.0,0.0,-9.008660097646631e-05,0.12020528316497803,1491.0,0.0,0.0,1019.0,0.0,-0.05305800926062762,0.0,5.0,2.0883593559265137,0.0,1500.0,0.0,8.580613999999999,0.0,0.0,0.0,1631.0,1500.0,-3.882595960626769e-05,0.0,0.008028514559173916,0.0,0.0,1.0,-0.021385418251156807,-0.0026370254409166082,0.0,8.619595,1418.0,0.0,1568.0,5.0,1500.0,,,,,,,,,,,,,,,,
4.800192000000001,-9.668811798095703,0.0,0.0,0.0,0.0,-0.00023899169261408116,0.15689584612846375,1490.0,0.0,0.0,1019.0,0.0,-0.05305800926062762,0.0,5.0,1.7759449481964111,0.0,1500.0,0.0,8.700388,0.0,0.0,0.0,1674.0,1500.0,-7.57212005681319e-05,0.0,0.008028514559173916,0.0,0.0,1.0,0.20850782096385956,-0.0065853752779800705,0.0,8.719573,1418.0,0.0,1569.0,5.0,1500.0,,,,,,,,,,,,,,,,
4.900257,-9.587684631347656,0.0,0.0,0.0,0.0,-0.00017146631991126762,0.1706458330154419,1490.0,0.0,0.0,1019.0,0.0,-0.05305800926062762,0.0,5.0,1.4521855115890503,0.0,1500.0,0.0,8.779986,0.0,0.0,0.0,1718.0,1500.0,-4.285951733442311e-05,0.0,0.008028514559173916,0.0,0.0,1.0,0.06950260698795319,-0.004717311854465648,0.0,8.819638,1418.0,0.0,1569.0,5.0,1500.0,,,,,,,,,,,,,,,,
5.000216,-9.554913520812988,0.0,0.0,0.0,0.0,-0.0001673105597595574,0.1530584692955017,1490.0,0.0,0.0,1019.0,0.0,-0.05305800926062762,0.0,5.0,1.1327400207519531,0.0,1500.0,0.0,8.899975,0.0,0.0,0.0,1776.0,1500.0,-6.683949575233315e-05,0.0,0.008028514559173916,0.0,0.0,1.0,0.20048829913139343,-0.00410930879663433,0.0,8.919597,1417.0,0.0,1569.0,5.0,1501.0,,,,,,,,,,,,,,,,
5.100218,-9.519031524658203,0.0,0.0,0.0,0.0,-0.00015792699683300472,0.19612964987754822,1491.0,0.0,0.0,1020.0,0.0,-0.05305800926062762,0.0,5.0,0.9524620771408081,0.0,1500.0,0.0,8.979922,0.0,0.0,0.0,1796.0,1500.0,-3.3567906936475016e-05,0.0,0.008028514559173916,0.0,0.0,1.0,0.3769179880619049,-0.003685734845777503,0.0,9.019599,1418.0,0.0,1568.0,5.0,1500.0,,,,,,,,,,,,,,,,
5.200225,-10.190887451171875,0.0,0.0,0.0,0.0,-0.00011664014894308446,0.18833976984024048,1491.0,0.0,0.0,1020.0,0.0,-0.05305800926062762,0.0,5.0,0.814173698425293,0.0,1500.0,0.0,9.099948999999999,0.0,0.0,0.0,1854.0,1500.0,-4.751375056699826e-05,0.0,0.008028514559173916,0.0,0.0,1.0,0.20316147804260254,-0.0037353687303708794,0.0,9.119606,1418.0,0.0,1569.0,5.0,1500.0,,,,,,,,,,,,,,,,
5.300236999999999,-9.197240829467773,0.0,0.0,0.0,0.0,-0.0002038258240049773,0.20884504914283752,1491.0,0.0,0.0,1020.0,0.0,-0.05305800926062762,0.0,5.0,-0.08789010345935822,0.0,1500.0,0.0,9.179919,0.0,0.0,0.0,1946.0,1500.0,-7.21476899392927e-05,0.0,0.008028514559173916,0.0,0.0,1.0,0.3288007974624634,-0.0061044999312742316,0.0,9.219617999999999,1418.0,0.0,1568.0,5.0,1500.0,,,,,,,,,,,,,,,,
5.400181999999999,-9.240668296813965,0.0,0.0,0.0,0.0,-0.0001964363159483377,0.2185526192188263,1491.0,0.0,0.0,1020.0,0.0,-0.05305800926062762,0.0,5.0,-0.5734052658081055,0.0,1500.0,0.0,9.299972,0.0,0.0,0.0,2099.0,1500.0,-8.145141004800806e-05,0.0,0.008028514559173916,0.0,0.0,1.0,0.24058595299720764,-0.005530703149065245,0.0,9.319562999999999,1418.0,0.0,1569.0,5.0,1500.0,,,,,,,,,,,,,,,,
5.5002320000000005,-9.806057929992676,0.0,0.0,0.0,0.0,-6.175610331022097e-05,0.2544209659099579,1491.0,0.0,0.0,1019.0,0.0,-0.05305800926062762,0.0,5.0,-0.40892958641052246,0.0,1500.0,0.0,9.379794,0.0,0.0,0.0,2113.0,1500.0,3.924107073858241e-06,0.0,0.008028514559173916,0.0,0.0,1.0,0.23256641626358032,-6.783939619585092e-05,0.0,9.419613,1418.0,0.0,1569.0,5.0,1500.0,,,,,,,,,,,,,,,,
5.600236000000001,-9.746641159057617,0.0,0.0,0.0,0.0,-2.6592114144482835e-05,0.20558243989944458,1492.0,0.0,0.0,1019.0,0.0,-0.05305800926062762,0.0,5.0,-0.35210832953453064,0.0,1500.0,0.0,9.499922999999999,0.0,0.0,0.0,2112.0,1500.0,1.2845162354158624e-05,0.0,0.008028514559173916,0.0,0.0,1.0,0.20316147804260254,-4.0041904604463905e-05,0.0,9.519617,1418.0,0.0,1569.0,5.0,1500.0,,,,,,,,,,,,,,,,
5.700208999999999,-9.76893138885498,0.0,0.0,0.0,0.0,-6.622703290746395e-06,0.17828695476055145,1491.0,0.0,0.0,1020.0,0.0,-0.05305800926062762,0.0,5.0,-0.36887556314468384,0.0,1500.0,0.0,9.580591,0.0,0.0,0.0,2113.0,1500.0,-2.4519467048507114e-06,0.0,0.008028514559173916,0.0,0.0,1.0,0.2218737155199051,-7.7351265165278e-06,0.0,9.619589999999999,1417.0,0.0,1569.0,5.0,1500.0,,,,,,,,,,,,,,,,
5.800233,-9.784170150756836,0.0,0.0,0.0,0.0,2.614976225843376e-05,0.2234758734703064,1491.0,0.0,0.0,1020.0,0.0,-0.05305800926062762,0.0,5.0,-0.3800707459449768,0.0,1500.0,0.0,9.699937,0.0,0.0,0.0,2112.0,1500.0,-1.8171076136353304e-05,0.0,0.008028514559173916,0.0,0.0,1.0,0.15771746635437012,-1.7781037794452692e-05,0.0,9.719614,1418.0,0.0,1569.0,5.0,1500.0,,,,,,,,,,,,,,,,
5.9002099999999995,-9.795487403869629,0.0,0.0,0.0,0.0,4.41494199529336e-06,0.24175360798835754,1491.0,0.0,0.0,1019.0,0.0,-0.05305800926062762,0.0,5.0,-0.36590516567230225,0.0,1500.0,0.0,9.779917,0.0,0.0,0.0,2113.0,1500.0,-2.9612077906349336e-06,0.0,0.008028514559173916,0.0,0.0,1.0,0.16573698818683624,-1.3768972771078513e-05,0.0,9.819590999999999,1418.0,0.0,1569.0,5.0,1500.0,,,,,,,,,,,,,,,,
6.0005880000000005,-9.313616752624512,0.0,0.0,0.0,0.0,0.000136713790678138,0.22357675433158875,1491.0,0.0,0.0,1019.0,0.0,-0.05305800926062762,0.0,5.0,-0.535595178604126,0.0,1500.0,0.0,9.899954,0.0,0.0,0.0,2107.0,1500.0,5.338125897227497e-05,0.0,0.008028514559173916,0.0,0.0,1.0,0.2913763225078583,0.002688852012145771,0.0,9.919969,1417.0,0.0,1570.0,5.0,1501.0,,,,,,,,,,,,,,,,
6.100234,-9.600753784179688,0.0,0.0,0.0,0.0,0.00012715706701493608,0.23929853737354279,1491.0,0.0,0.0,1019.0,0.0,-0.05305800926062762,0.0,5.0,0.26804235577583313,0.0,1500.0,0.0,9.97994,0.0,0.0,0.0,1979.0,1500.0,5.739561996430133e-05,0.0,0.008028514559173916,0.0,0.0,1.0,0.189795583486557,0.004618895568619609,0.0,10.019615,1418.0,0.0,1570.0,5.0,1500.0,,,,,,,,,,,,,,,,
6.200215,-10.497493743896484,0.0,0.0,0.0,0.0,0.00017027971454788336,0.12131654471158981,1492.0,0.0,0.0,1019.0,0.0,-0.05305800926062762,0.0,5.0,1.0531829595565796,0.0,1500.0,0.0,10.099971,0.0,0.0,0.0,1868.0,1500.0,0.00010052500098407459,0.0,0.008028514559173916,0.0,0.0,1.0,0.23791277408599854,0.006725768600211181,0.0,10.119596,1418.0,0.0,1569.0,5.0,1500.0,,,,,,,,,,,,,,,,
6.300231999999999,-10.510809898376465,0.0,0.0,0.0,0.0,0.00019398674089783147,0.08377495408058167,1491.0,0.0,0.0,1020.0,0.0,-0.05305800926062762,0.0,5.0,1.4795241355895996,0.0,1500.0,0.0,10.179938,0.0,0.0,0.0,1829.0,1500.0,7.092335754410868e-05,0.0,0.008028514559173916,0.0,0.0,1.0,0.1496979296207428,0.008460290099517643,0.0,10.219612999999999,1417.0,0.0,1569.0,5.0,1501.0,,,,,,,,,,,,,,,,
6.400214,-9.78698444366455,0.0,0.0,0.0,0.0,0.0003348241725485171,0.1338886171579361,1491.0,0.0,0.0,1019.0,0.0,-0.05305800926062762,0.0,5.0,1.6048119068145752,0.0,1500.0,0.0,10.299953,0.0,0.0,0.0,1731.0,1500.0,8.733596551256956e-05,0.0,0.008028514559173916,0.0,0.0,1.0,0.21118099987506866,0.0085197311268401,0.0,10.319595,1417.0,0.0,1570.0,5.0,1501.0,,,,,,,,,,,,,,,,
6.500235,-9.75822925567627,0.0,0.0,0.0,0.0,0.0001870946249881427,0.13004103302955627,1491.0,0.0,0.0,1019.0,0.0,-0.05305800926062762,0.0,5.0,1.784132957458496,0.0,1500.0,0.0,10.379961,0.0,0.0,0.0,1677.0,1500.0,4.0737213312894265e-05,0.0,0.008028514559173916,0.0,0.0,1.0,0.23791277408599854,0.004363849000271385,0.0,10.419616,1417.0,0.0,1570.0,5.0,1500.0,,,,,,,,,,,,,,,,
6.600210000000001,-9.845609664916992,0.0,0.0,0.0,0.0,4.8424242333904824e-05,0.12660247087478638,1492.0,0.0,0.0,1020.0,0.0,-0.05305800926062762,0.0,5.0,2.0230493545532227,0.0,1500.0,0.0,10.499927,0.0,0.0,0.0,1639.0,1500.0,4.343598020355833e-05,0.0,0.008028514559173916,0.0,0.0,1.0,0.19514194130897522,0.0021218894630544703,0.0,10.519591,1418.0,0.0,1570.0,5.0,1500.0,,,,,,,,,,,,,,,,
6.700213,-9.615506172180176,0.0,0.0,0.0,0.0,9.040201424167897e-05,0.12762512266635895,1491.0,0.0,0.0,1019.0,0.0,-0.05305800926062762,0.0,5.0,2.085223436355591,0.0,1500.0,0.0,10.580613999999999,0.0,0.0,0.0,1619.0,1500.0,3.664035186851989e-05,0.0,0.008028514559173916,0.0,0.0,1.0,0.19514194130897522,0.002572098405778317,0.0,10.619594,1418.0,0.0,1570.0,5.0,1500.0,,,,,,,,,,,,,,,,
6.800217999999999,-9.620734214782715,0.0,0.0,0.0,0.0,6.494062808544437e-05,0.09256599843502045,1491.0,0.0,0.0,1019.0,0.0,-0.05305800926062762,0.0,5.0,2.1503050327301025,0.0,1500.0,0.0,10.699956,0.0,0.0,0.0,1604.0,1500.0,2.677966532182155e-06,0.0,0.008028514559173916,0.0,0.0,1.0,0.3020690381526947,0.000560933376047281,0.0,10.719598999999999,1418.0,0.0,1568.0,5.0,1500.0,,,,,,,,,,,,,,,,
6.900240999999999,-9.558258056640625,0.0,0.0,0.0,0.0,2.2322028976708576e-05,0.13409610092639923,1490.0,0.0,0.0,1019.0,0.0,-0.05305800926062762,0.0,5.0,2.159874439239502,0.0,1500.0,0.0,10.779935,0.0,0.0,0.0,1603.0,1501.0,5.6827164539819425e-06,0.0,0.008028514559173916,0.0,0.0,1.0,0.1844492256641388,7.31601105233722e-05,0.0,10.819621999999999,1417.0,0.0,1569.0,5.0,1500.0,,,,,,,,,,,,,,,,
7.000204999999999,-9.548877716064453,0.0,0.0,0.0,0.0,-4.630669076430293e-06,0.14803959429264069,1491.0,0.0,0.0,1020.0,0.0,-0.05305800926062762,0.0,5.0,2.13655161857605,0.0,1500.0,0.0,10.899913999999999,0.0,0.0,0.0,1602.0,1500.0,1.8706705304600985e-05,0.0,0.008028514559173916,0.0,0.0,1.0,0.2967226803302765,-9.622737841528878e-06,0.0,10.919585999999999,1418.0,0.0,1568.0,5.0,1500.0,,,,,,,,,,,,,,,,
7.100224000000001,-9.555694580078125,0.0,0.0,0.0,0.0,-1.7980990250259193e-05,0.13385123014450073,1491.0,0.0,0.0,1019.0,0.0,-0.05305800926062762,0.0,5.0,2.157698631286621,0.0,1500.0,0.0,10.979948,0.0,0.0,0.0,1603.0,1500.0,1.8663049390918853e-05,0.0,0.008028514559173916,0.0,0.0,1.0,0.16039063036441803,-2.673308179412905e-07,0.0,11.019605,1417.0,0.0,1568.0,5.0,1500.0,,,,,,,,,,,,,,,,
7.200205,-9.472162246704102,0.0,0.0,0.0,0.0,1.6631295934835316e-05,0.10788176953792572,1491.0,0.0,0.0,1020.0,0.0,-0.05305800926062762,0.0,5.0,2.132016181945801,0.0,1500.0,0.0,11.099948,0.0,0.0,0.0,1602.0,1500.0,1.3299810879396204e-05,0.0,0.008028514559173916,0.0,0.0,1.0,0.16841016709804535,0.00039422924459551583,0.0,11.119586,1418.0,0.0,1568.0,5.0,1500.0,,,,,,,,,,,,,,,,
7.3002020000000005,-9.660310745239258,0.0,0.0,0.0,0.0,4.785749974267406e-05,0.09984811395406723,1491.0,0.0,0.0,1020.0,0.0,-0.05305800926062762,0.0,5.0,2.2707080841064453,0.0,1500.0,0.0,11.179902,0.0,0.0,0.0,1597.0,1500.0,5.554751758659379e-06,0.0,0.008028514559173916,0.0,0.0,1.0,0.20850782096385956,0.001764851757223129,0.0,11.219583,1418.0,0.0,1568.0,5.0,1500.0,,,,,,,,,,,,,,,,
7.400226,-9.211655616760254,0.0,0.0,0.0,0.0,0.00022602024182489914,0.11962112039327621,1490.0,0.0,0.0,1019.0,0.0,-0.05305800926062762,0.0,5.0,2.2621421813964844,0.0,1500.0,0.0,11.299985999999999,0.0,0.0,0.0,1564.0,1500.0,5.223903691795116e-05,0.0,0.008028514559173916,0.0,0.0,1.0,0.24593231081962585,0.006482266731158719,0.0,11.319607,1418.0,0.0,1569.0,5.0,1500.0,,,,,,,,,,,,,,,,
7.500199,-9.36041259765625,0.0,0.0,0.0,0.0,0.0002106573751061844,0.10097597539424896,1490.0,0.0,0.0,1019.0,0.0,-0.05305800926062762,0.0,5.0,2.7468886375427246,0.0,1500.0,0.0,11.379947999999999,0.0,0.0,0.0,1525.0,1500.0,7.042432367798001e-05,0.0,0.008028514559173916,0.0,0.0,1.0,0.2673177421092987,0.008628398502288342,0.0,11.41958,1418.0,0.0,1569.0,5.0,1500.0,,,,,,,,,,,,,,,,
7.600225999999999,-8.898224830627441,0.0,0.0,0.0,0.0,0.00030453373851289624,0.110314279794693,1491.0,0.0,0.0,1019.0,0.0,-0.05305800926062762,0.0,5.0,3.064385414123535,0.0,1500.0,0.0,11.4999,0.0,0.0,0.0,1431.0,1500.0,8.853233179047157e-05,0.0,0.008028514559173916,0.0,0.0,1.0,0.3475130498409271,0.010496948264790895,0.0,11.519606999999999,1418.0,0.0,1568.0,5.0,1500.0,,,,,,,,,,,,,,,,
7.700241,-8.476789474487305,0.0,0.0,0.0,0.0,0.00020516024911294882,0.1275712102651596,1491.0,0.0,0.0,1020.0,0.0,-0.05305800926062762,0.0,5.0,3.493283987045288,0.0,1500.0,0.0,11.580623,0.0,0.0,0.0,1334.0,1500.0,4.393693211783538e-05,0.0,0.008028514559173916,0.0,0.0,1.0,0.35820576548576355,0.006623571353825341,0.0,11.619622,1418.0,0.0,1568.0,5.0,1500.0,,,,,,,,,,,,,,,,
7.800178000000001,-7.93812370300293,0.0,0.0,0.0,0.0,0.000227178336540383,0.13145753741264343,1491.0,0.0,0.0,1019.0,0.0,-0.05305800926062762,0.0,5.0,3.869596481323242,0.0,1500.0,0.0,11.699983,0.0,0.0,0.0,1216.0,1500.0,6.513312778636927e-05,0.0,0.008028514559173916,0.0,0.0,1.0,0.4544401466846466,0.0070520776142596435,0.0,11.719559,1418.0,0.0,1568.0,5.0,1500.0,,,,,,,,,,,,,,,,
7.900235,-9.21062183380127,0.0,0.0,0.0,0.0,0.0001753566742141081,-0.00995608139783144,1490.0,0.0,0.0,1019.0,0.0,-0.05305800926062762,0.0,5.0,5.019056797027588,0.0,1500.0,0.0,11.779926999999999,0.0,0.0,0.0,1136.0,1500.0,8.173993000253018e-05,0.0,0.008028514559173916,0.0,0.0,1.0,0.1844492256641388,0.005426471601307667,0.0,11.819616,1417.0,0.0,1569.0,5.0,1500.0,,,,,,,,,,,,,,,,
8.000224,-8.613515853881836,0.0,0.0,0.0,0.0,-3.303822696841636e-06,0.015985602512955666,1490.0,0.0,0.0,1019.0,0.0,-0.05305800926062762,0.0,5.0,4.7854719161987305,0.0,1500.0,0.0,11.899951999999999,0.0,0.0,0.0,1093.0,1500.0,1.944640875113927e-06,0.0,0.008028514559173916,0.0,0.0,1.0,0.2699908912181854,0.00021972072151983085,0.0,11.919604999999999,1418.0,0.0,1569.0,5.0,1500.0,,,,,,,,,,,,,,,,
8.100203,-8.552351951599121,0.0,0.0,0.0,0.0,2.0807797013980454e-05,0.029118359088897705,1491.0,0.0,0.0,1020.0,0.0,-0.05305800926062762,0.0,5.0,4.803333282470703,0.0,1500.0,0.0,11.979959,0.0,0.0,0.0,1093.0,1500.0,2.4747301300622985e-06,0.0,0.008028514559173916,0.0,0.0,1.0,0.2940495014190674,1.9356945977036585e-05,0.0,12.019584,1417.0,0.0,1568.0,5.0,1501.0,,,,,,,,,,,,,,,,
8.200237,-8.614133834838867,0.0,0.0,0.0,0.0,-1.3179904424493604e-05,0.04787418246269226,1492.0,0.0,0.0,1020.0,0.0,-0.05305800926062762,0.0,5.0,4.781553745269775,0.0,1500.0,0.0,12.099917999999999,0.0,0.0,0.0,1092.0,1500.0,-9.786139695491024e-06,0.0,0.008028514559173916,0.0,0.0,1.0,0.3341471552848816,5.6657907965794215e-06,0.0,12.119618,1418.0,0.0,1568.0,5.0,1500.0,,,,,,,,,,,,,,,,
8.300212,-8.56747055053711,0.0,0.0,0.0,0.0,-3.778285025181423e-05,0.03413686156272888,1492.0,0.0,0.0,1019.0,0.0,-0.05305800926062762,0.0,5.0,4.777788162231445,0.0,1500.0,0.0,12.179928,0.0,0.0,0.0,1092.0,1500.0,-1.5575549609556853e-05,0.0,0.008028514559173916,0.0,0.0,1.0,0.39563024044036865,3.632188628568976e-06,0.0,12.219593,1418.0,0.0,1569.0,5.0,1500.0,,,,,,,,,,,,,,,,
8.400168,-8.568188667297363,0.0,0.0,0.0,0.0,6.6838431073064346e-06,0.022606227546930313,1491.0,0.0,0.0,1019.0,0.0,-0.05305800926062762,0.0,5.0,4.781339168548584,0.0,1500.0,0.0,12.299975,0.0,0.0,0.0,1093.0,1500.0,-5.9070879586858785e-06,0.0,0.008028514559173916,0.0,0.0,1.0,0.344839870929718,1.209150556450283e-05,0.0,12.319549,1418.0,0.0,1569.0,5.0,1500.0,,,,,,,,,,,,,,,,
8.500221,-8.580942153930664,0.0,0.0,0.0,0.0,2.8489592039196305e-05,0.04160835221409798,1491.0,0.0,0.0,1019.0,0.0,-0.05305800926062762,0.0,5.0,4.787117004394531,0.0,1500.0,0.0,12.379923999999999,0.0,0.0,0.0,1093.0,1500.0,1.84497559349617e-05,0.0,0.008028514559173916,0.0,0.0,1.0,0.31276175379753113,1.4343338790966787e-05,0.0,12.419602,1418.0,0.0,1569.0,5.0,1500.0,,,,,,,,,,,,,,,,
8.600198,-8.578731536865234,0.0,0.0,0.0,0.0,2.2373222982160264e-05,0.046362072229385376,1491.0,0.0,0.0,1020.0,0.0,-0.05305800926062762,0.0,5.0,4.802915096282959,0.0,1500.0,0.0,12.49996,0.0,0.0,0.0,1092.0,1500.0,3.023430064982097e-06,0.0,0.008028514559173916,0.0,0.0,1.0,0.17108334600925446,1.8653104595725836e-06,0.0,12.519579,1418.0,0.0,1569.0,5.0,1500.0,,,,,,,,,,,,,,,,
8.700229,-8.65358829498291,0.0,0.0,0.0,0.0,-3.466880155505953e-05,0.03756372630596161,1491.0,0.0,0.0,1019.0,0.0,-0.05305800926062762,0.0,5.0,4.8131818771362305,0.0,1500.0,0.0,12.580573999999999,0.0,0.0,0.0,1092.0,1500.0,2.8199358743465362e-06,0.0,0.008028514559173916,0.0,0.0,1.0,0.27533724904060364,-0.00038037931149973386,0.0,12.61961,1418.0,0.0,1569.0,5.0,1500.0,,,,,,,,,,,,,,,,
8.800228,-8.258115768432617,0.0,0.0,0.0,0.0,-0.00014196626800458414,0.03816194087266922,1491.0,0.0,0.0,1020.0,0.0,-0.05305800926062762,0.0,5.0,4.260558605194092,0.0,1500.0,0.0,12.699961,0.0,0.0,0.0,1160.0,1500.0,-2.1973120982972692e-05,0.0,0.008028514559173916,0.0,0.0,1.0,0.379591166973114,-0.005908574498828464,0.0,12.719609,1417.0,0.0,1568.0,5.0,1500.0,,,,,,,,,,,,,,,,
8.900231999999999,-9.619747161865234,0.0,0.0,0.0,0.0,-0.0005131468969136941,0.04054367542266846,1491.0,0.0,0.0,1020.0,0.0,-0.05305800926062762,0.0,5.0,4.521522521972656,0.0,1500.0,0.0,12.77994,0.0,0.0,0.0,1222.0,1500.0,-0.0001633412728990178,0.0,0.008028514559173916,0.0,0.0,1.0,0.4571133255958557,-0.01632580478145812,0.0,12.819612999999999,1418.0,0.0,1568.0,5.0,1500.0,,,,,,,,,,,,,,,,
9.000194,-9.25098991394043,0.0,0.0,0.0,0.0,-0.0005080674177774439,0.11178985983133316,1491.0,0.0,0.0,1020.0,0.0,-0.05305800926062762,0.0,5.0,3.478712558746338,0.0,1500.0,0.0,12.899951,0.0,0.0,0.0,1380.0,1500.0,-0.000137713939004997,0.0,0.008028514559173916,0.0,0.0,1.0,0.4143424928188324,-0.014892182514479133,0.0,12.919575,1418.0,0.0,1568.0,5.0,1500.0,,,,,,,,,,,,,,,,
9.100211,-9.008015632629395,0.0,0.0,0.0,0.0,-0.0004643263622630997,0.07663726061582565,1491.0,0.0,0.0,1020.0,0.0,-0.05305800926062762,0.0,5.0,2.637744903564453,0.0,1500.0,0.0,12.979951999999999,0.0,0.0,0.0,1483.0,1500.0,-0.0001342263016674108,0.0,0.008028514559173916,0.0,0.0,1.0,0.35820576548576355,-0.01219125655178581,0.0,13.019592,1418.0,0.0,1568.0,5.0,1500.0,,,,,,,,,,,,,,,,
9.200208,-9.519492149353027,0.0,0.0,0.0,0.0,-0.00015406685991582375,0.050220128148794174,1491.0,0.0,0.0,1019.0,0.0,-0.05305800926062762,0.0,5.0,2.3052587509155273,0.0,1500.0,0.0,13.099948,0.0,0.0,0.0,1575.0,1500.0,-5.3738466994280024e-05,0.0,0.008028514559173916,0.0,0.0,1.0,0.4865182638168335,-0.005955714530717468,0.0,13.119589,1418.0,0.0,1568.0,5.0,1500.0,,,,,,,,,,,,,,,,
9.300229999999999,-9.473627090454102,0.0,0.0,0.0,0.0,-5.125874465627223e-07,0.12632422149181366,1491.0,0.0,0.0,1019.0,0.0,-0.05305800926062762,0.0,5.0,2.186868667602539,0.0,1500.0,0.0,13.17995,0.0,0.0,0.0,1593.0,1500.0,-2.2443396317859778e-05,0.0,0.008028514559173916,0.0,0.0,1.0,0.3769179880619049,-0.0015135134586408115,0.0,13.219610999999999,1418.0,0.0,1568.0,5.0,1500.0,,,,,,,,,,,,,,,,
9.400218,-9.544580459594727,0.0,0.0,0.0,0.0,1.711881948024309e-05,0.14580360054969788,1491.0,0.0,0.0,1019.0,0.0,-0.05305800926062762,0.0,5.0,2.187363862991333,0.0,1500.0,0.0,13.299921999999999,0.0,0.0,0.0,1602.0,1500.0,5.800112582097134e-06,0.0,0.008028514559173916,0.0,0.0,1.0,0.3688984513282776,3.433313804951768e-06,0.0,13.319599,1418.0,0.0,1568.0,5.0,1500.0,,,,,,,,,,,,,,,,
9.500214999999999,-9.575675010681152,0.0,0.0,0.0,0.0,-1.7418384466263694e-05,0.12818771600723267,1491.0,0.0,0.0,1020.0,0.0,-0.05305800926062762,0.0,5.0,2.179570436477661,0.0,1500.0,0.0,13.379971,0.0,0.0,0.0,1602.0,1500.0,-4.811378064002435e-06,0.0,0.008028514559173916,0.0,0.0,1.0,0.35285940766334534,4.106319616122963e-06,0.0,13.419595999999999,1418.0,0.0,1568.0,5.0,1500.0,,,,,,,,,,,,,,,,
9.600202,-9.542725563049316,0.0,0.0,0.0,0.0,-2.794680269968288e-05,0.11114058643579483,1491.0,0.0,0.0,1020.0,0.0,-0.05305800926062762,0.0,5.0,2.1964468955993652,0.0,1500.0,0.0,13.499977,0.0,0.0,0.0,1602.0,1500.0,-2.6760929303295933e-06,0.0,0.008028514559173916,0.0,0.0,1.0,0.3314739763736725,-6.084902603474804e-06,0.0,13.519582999999999,1418.0,0.0,1568.0,5.0,1500.0,,,,,,,,,,,,,,,,
9.700227,-9.562234878540039,0.0,0.0,0.0,0.0,2.1837136652012813e-05,0.10425111651420593,1490.0,0.0,0.0,1019.0,0.0,-0.05305800926062762,0.0,5.0,2.1783502101898193,0.0,1501.0,0.0,13.580736,0.0,0.0,0.0,1603.0,1500.0,8.231914193855604e-06,0.0,0.008028514559173916,0.0,0.0,1.0,0.3074153959751129,-2.4546027202463183e-07,0.0,13.619608,1417.0,0.0,1569.0,5.0,1500.0,,,,,,,,,,,,,,,,
9.800222999999999,-9.665468215942383,0.0,0.0,0.0,0.0,-4.0592660752017344e-05,0.1468183845281601,1490.0,0.0,0.0,1020.0,0.0,-0.05305800926062762,0.0,5.0,2.2254223823547363,0.0,1500.0,0.0,13.699985999999999,0.0,0.0,0.0,1604.0,1500.0,-1.254013275956276e-05,0.0,0.008028514559173916,0.0,0.0,1.0,0.3688984513282776,-0.0008667192098895767,0.0,13.719603999999999,1418.0,0.0,1568.0,5.0,1500.0,,,,,,,,,,,,,,,,
9.900243,-9.983946800231934,0.0,0.0,0.0,0.0,-0.00022902860281774946,0.14387595653533936,1491.0,0.0,0.0,1019.0,0.0,-0.05305800926062762,0.0,5.0,2.230257749557495,0.0,1500.0,0.0,13.779917999999999,0.0,0.0,0.0,1611.0,1500.0,-6.392392033866035e-05,0.0,0.008028514559173916,0.0,0.0,1.0,0.3475130498409271,-0.006596357176436095,0.0,13.819624,1417.0,0.0,1568.0,5.0,1500.0,,,,,,,,,,,,,,,,
10.000226,-9.844462394714355,0.0,0.0,0.0,0.0,-0.00041653585197747213,0.12380804121494293,1491.0,0.0,0.0,1019.0,0.0,-0.05305800926062762,0.0,5.0,1.6147487163543701,0.0,1500.0,0.0,13.899961999999999,0.0,0.0,0.0,1700.0,1500.0,-0.00010974086473480728,0.0,0.008028514559173916,0.0,0.0,1.0,0.2913763225078583,-0.012579498625340826,0.0,13.919607,1418.0,0.0,1568.0,5.0,1500.0,,,,,,,,,,,,,,,,
10.100218,-10.023500442504883,0.0,0.0,0.0,0.0,-0.00042553383846226595,0.1455625742673874,1491.0,0.0,0.0,1019.0,0.0,-0.05305800926062762,0.0,5.0,1.0213066339492798,0.0,1500.0,0.0,13.979947999999998,0.0,0.0,0.0,1818.0,1500.0,-0.00013447804548688468,0.0,0.008028514559173916,0.0,0.0,1.0,0.28068360686302185,-0.012079309118948108,0.0,14.019599,1418.0,0.0,1568.0,5.0,1500.0,,,,,,,,,,,,,,,,
10.200184,-9.892276763916016,0.0,0.0,0.0,0.0,-0.00024824781912128436,0.18796703219413757,1491.0,0.0,0.0,1020.0,0.0,-0.05305800926062762,0.0,5.0,0.4736201763153076,0.0,1500.0,0.0,14.099905,0.0,0.0,0.0,1945.0,1500.0,-7.581768001545957e-05,0.0,0.008028514559173916,0.0,0.0,1.0,0.32345443964004517,-0.007221637751913626,0.0,14.119565,1417.0,0.0,1568.0,5.0,1500.0,,,,,,,,,,,,,,,,
10.300251,-10.586535453796387,0.0,0.0,0.0,0.0,-0.00023251863771552112,0.17185892164707184,1490.0,0.0,0.0,1019.0,0.0,-0.05305800926062762,0.0,5.0,0.0001641940325498581,0.0,1500.0,0.0,14.179969,0.0,0.0,0.0,2055.0,1501.0,-7.370264994771375e-05,0.0,0.008028514559173916,0.0,0.0,1.0,0.3742448091506958,-0.007260405471125694,0.0,14.219631999999999,1417.0,0.0,1569.0,5.0,1500.0,,,,,,,,,,,,,,,,
10.400245,-9.8727445602417,0.0,0.0,0.0,0.0,-3.1029912710891746e-05,0.24839845299720764,1491.0,0.0,0.0,1019.0,0.0,-0.05305800926062762,0.0,5.0,-0.3864647448062897,0.0,1500.0,0.0,14.29998,0.0,0.0,0.0,2113.0,1501.0,-4.334185615592981e-07,0.0,0.008028514559173916,0.0,0.0,1.0,0.3020690381526947,-6.300779227348728e-05,0.0,14.319626,1417.0,0.0,1568.0,5.0,1500.0,,,,,,,,,,,,,,,,
10.500237,-9.806665420532227,0.0,0.0,0.0,0.0,-1.6178449643398165e-05,0.23303094506263733,1491.0,0.0,0.0,1019.0,0.0,-0.05305800926062762,0.0,5.0,-0.4013931155204773,0.0,1501.0,0.0,14.379945999999999,0.0,0.0,0.0,2113.0,1500.0,-2.1844211486390604e-06,0.0,0.008028514559173916,0.0,0.0,1.0,0.35820576548576355,-3.4654851005709183e-05,0.0,14.419618,1417.0,0.0,1568.0,5.0,1500.0,,,,,,,,,,,,,,,,
10.600217,-9.830881118774414,0.0,0.0,0.0,0.0,-4.7437536598729775e-06,0.193160742521286,1490.0,0.0,0.0,1020.0,0.0,-0.05305800926062762,0.0,5.0,-0.3862066864967346,0.0,1500.0,0.0,14.499908999999999,0.0,0.0,0.0,2113.0,1501.0,1.1802200815386088e-06,0.0,0.008028514559173916,0.0,0.0,1.0,0.3368203341960907,-3.1322664968690425e-05,0.0,14.519598,1417.0,0.0,1568.0,5.0,1500.0,,,,,,,,,,,,,,,,
10.700232999999999,-9.769969940185547,0.0,0.0,0.0,0.0,9.04039993402393e-06,0.19665981829166412,1490.0,0.0,0.0,1019.0,0.0,-0.05305800926062762,0.0,5.0,-0.3771359324455261,0.0,1500.0,0.0,14.580585,0.0,0.0,0.0,2113.0,1500.0,-6.174574910114882e-06,0.0,0.008028514559173916,0.0,0.0,1.0,0.35018622875213623,-1.9264406249369608e-05,0.0,14.619613999999999,1418.0,0.0,1568.0,5.0,1500.0,,,,,,,,,,,,,,,,
10.800174,-9.783636093139648,0.0,0.0,0.0,0.0,1.7970063064939334e-05,0.23067384958267212,1491.0,0.0,0.0,1019.0,0.0,-0.05305800926062762,0.0,5.0,-0.3857325613498688,0.0,1500.0,0.0,14.699924999999999,0.0,0.0,0.0,2112.0,1500.0,-8.10146050596762e-06,0.0,0.008028514559173916,0.0,0.0,1.0,0.4196888208389282,-9.416366832649591e-06,0.0,14.719555,1418.0,0.0,1568.0,5.0,1500.0,,,,,,,,,,,,,,,,
10.900229,-9.79528522491455,0.0,0.0,0.0,0.0,-1.5754390328831928e-05,0.22448940575122833,1490.0,0.0,0.0,1020.0,0.0,-0.05305800926062762,0.0,5.0,-0.36487504839897156,0.0,1500.0,0.0,14.779954,0.0,0.0,0.0,2113.0,1500.0,-6.998509166791804e-06,0.0,0.008028514559173916,0.0,0.0,1.0,0.4918646216392517,-5.217988778748579e-07,0.0,14.819609999999999,1418.0,0.0,1568.0,5.0,1500.0,,,,,,,,,,,,,,,,
11.000236,-10.345989227294922,0.0,0.0,0.0,0.0,0.0003644330493056527,0.1057741716504097,1491.0,0.0,0.0,1019.0,0.0,-0.05305800926062762,0.0,5.0,0.25110507011413574,0.0,1500.0,0.0,14.899942999999999,0.0,0.0,0.0,1961.0,1500.0,0.0001725963103449842,0.0,0.008028514559173916,0.0,0.0,1.0,0.4196888208389282,0.013957320385401548,0.0,14.919616999999999,1418.0,0.0,1568.0,5.0,1500.0,,,,,,,,,,,,,,,,
11.100222,-9.52657699584961,0.0,0.0,0.0,0.0,6.193967514720101e-05,0.13094091415405273,1491.0,0.0,0.0,1020.0,0.0,-0.05305800926062762,0.0,5.0,1.0336674451828003,0.0,1500.0,0.0,14.979854,0.0,0.0,0.0,1868.0,1500.0,1.872115568429508e-05,0.0,0.008028514559173916,0.0,0.0,1.0,0.4116693139076233,0.007951172241540704,0.0,15.019603,1418.0,0.0,1568.0,5.0,1500.0,,,,,,,,,,,,,,,,
11.200231,-9.168795585632324,0.0,0.0,0.0,0.0,0.00017255440586933586,0.1643698662519455,1491.0,0.0,0.0,1020.0,0.0,-0.05305800926062762,0.0,5.0,1.5135986804962158,0.0,1500.0,0.0,15.099986,0.0,0.0,0.0,1704.0,1500.0,3.151723713689429e-05,0.0,0.008028514559173916,0.0,0.0,1.0,0.3047422170639038,0.0053868711241062996,0.0,15.119612,1418.0,0.0,1568.0,5.0,1500.0,,,,,,,,,,,,,,,,
11.30021,-9.745834350585938,0.0,0.0,0.0,0.0,0.0001334975408989012,0.07915123552083969,1491.0,0.0,0.0,1019.0,0.0,-0.05305800926062762,0.0,5.0,1.9741827249526978,0.0,1500.0,0.0,15.17996,0.0,0.0,0.0,1649.0,1500.0,2.746468179201506e-05,0.0,0.008028514559173916,0.0,0.0,1.0,0.2913763225078583,0.002350653700320651,0.0,15.219591,1418.0,0.0,1568.0,5.0,1500.0,,,,,,,,,,,,,,,,
11.400218,-9.7026948928833,0.0,0.0,0.0,0.0,9.313429821100357e-05,0.15343652665615082,1490.0,0.0,0.0,1019.0,0.0,-0.05305800926062762,0.0,5.0,2.2022552490234375,0.0,1500.0,0.0,15.299957,0.0,0.0,0.0,1613.0,1500.0,1.9546672229102873e-05,0.0,0.008028514559173916,0.0,0.0,1.0,0.40097659826278687,0.0027043121304074665,0.0,15.319599,1417.0,0.0,1569.0,5.0,1500.0,,,,,,,,,,,,,,,,
11.500238,-9.50700569152832,0.0,0.0,0.0,0.0,1.864247100993716e-05,0.14746740460395813,1491.0,0.0,0.0,1020.0,0.0,-0.05305800926062762,0.0,5.0,2.140054702758789,0.0,1500.0,0.0,15.379983999999999,0.0,0.0,0.0,1602.0,1500.0,3.117958954870743e-06,0.0,0.008028514559173916,0.0,0.0,1.0,0.3688984513282776,9.659419699634237e-05,0.0,15.419618999999999,1418.0,0.0,1568.0,5.0,1500.0,,,,,,,,,,,,,,,,
11.600216999999999,-9.575937271118164,0.0,0.0,0.0,0.0,-1.5749395073140433e-05,0.09600886702537537,1491.0,0.0,0.0,1020.0,0.0,-0.05305800926062762,0.0,5.0,2.18327260017395,0.0,1500.0,0.0,15.499956999999998,0.0,0.0,0.0,1602.0,1500.0,9.379525679020048e-06,0.0,0.008028514559173916,0.0,0.0,1.0,0.35820576548576355,-3.2837791952826763e-06,0.0,15.519597999999998,1418.0,0.0,1568.0,5.0,1500.0,,,,,,,,,,,,,,,,
11.700229,-9.553845405578613,0.0,0.0,0.0,0.0,1.3756665972736678e-05,0.12300680577754974,1491.0,0.0,0.0,1019.0,0.0,-0.05305800926062762,0.0,5.0,2.1521313190460205,0.0,1500.0,0.0,15.580582,0.0,0.0,0.0,1603.0,1500.0,4.821433593966731e-06,0.0,0.008028514559173916,0.0,0.0,1.0,0.39830341935157776,4.047713492402988e-06,0.0,15.61961,1417.0,0.0,1568.0,5.0,1500.0,,,,,,,,,,,,,,,,
11.800209,-9.458450317382812,0.0,0.0,0.0,0.0,0.00011050423164321421,0.11699327826499939,1491.0,0.0,0.0,1019.0,0.0,-0.05305800926062762,0.0,5.0,2.143712282180786,0.0,1500.0,0.0,15.699962999999999,0.0,0.0,0.0,1600.0,1500.0,2.4652668787370387e-05,0.0,0.008028514559173916,0.0,0.0,1.0,0.3261276185512543,0.0017374529270629876,0.0,15.71959,1418.0,0.0,1568.0,5.0,1500.0,,,,,,,,,,,,,,,,
11.900214,-9.547934532165527,0.0,0.0,0.0,0.0,0.0001709373287338046,0.10082042217254639,1491.0,0.0,0.0,1020.0,0.0,-0.05305800926062762,0.0,5.0,2.374812602996826,0.0,1500.0,0.0,15.779885,0.0,0.0,0.0,1579.0,1500.0,6.631594988105408e-05,0.0,0.008028514559173916,0.0,0.0,1.0,0.40364977717399597,0.005290850122795382,0.0,15.819595,1418.0,0.0,1568.0,5.0,1500.0,,,,,,,,,,,,,,,,
12.000195999999999,-8.442646026611328,0.0,0.0,0.0,0.0,0.00021149042567910042,0.20137949287891388,1491.0,0.0,0.0,1019.0,0.0,-0.05305800926062762,0.0,5.0,2.3712830543518066,0.0,1500.0,0.0,15.899854,0.0,0.0,0.0,1501.0,1500.0,4.012264955511679e-05,0.0,0.008028514559173916,0.0,0.0,1.0,0.4089961349964142,0.007599966832489203,0.0,15.919576999999999,1418.0,0.0,1568.0,5.0,1500.0,,,,,,,,,,,,,,,,
12.100613000000001,-10.318717956542969,0.0,0.0,0.0,0.0,0.0003257896456210322,0.03715026378631592,1491.0,0.0,0.0,1020.0,0.0,-0.05305800926062762,0.0,5.0,4.005228042602539,0.0,1500.0,0.0,15.979961,0.0,0.0,0.0,1419.0,1500.0,0.0001124127220601355,0.0,0.008028514559173916,0.0,0.0,1.0,0.18177606165409088,0.010172652226019504,0.0,16.019994,1418.0,0.0,1568.0,5.0,1500.0,,,,,,,,,,,,,,,,
12.200261,-9.900005340576172,0.0,0.0,0.0,0.0,0.0002545016476183435,0.00414149509742856,1491.0,0.0,0.0,1019.0,0.0,-0.05305800926062762,0.0,5.0,4.401504993438721,0.0,1500.0,0.0,16.099909999999998,0.0,0.0,0.0,1282.0,1500.0,9.248581100843244e-05,0.0,0.008028514559173916,0.0,0.0,1.0,0.43572789430618286,0.008963341983933545,0.0,16.119642,1418.0,0.0,1568.0,5.0,1500.0,,,,,,,,,,,,,,,,
12.300220999999999,-9.048661231994629,0.0,0.0,0.0,0.0,0.0002980523937452204,-0.01537191029638052,1490.0,0.0,0.0,1019.0,0.0,-0.05305800926062762,0.0,5.0,4.535080909729004,0.0,1500.0,0.0,16.179948,0.0,0.0,0.0,1231.0,1500.0,0.00010200432812779752,0.0,0.008028514559173916,0.0,0.0,1.0,0.3475130498409271,0.008567558795244942,0.0,16.219602,1418.0,0.0,1569.0,5.0,1500.0,,,,,,,,,,,,,,,,
12.400203,-9.151888847351074,0.0,0.0,0.0,0.0,0.00012196145656516012,-0.014565235935151577,1491.0,0.0,0.0,1020.0,0.0,-0.05305800926062762,0.0,5.0,4.983998775482178,0.0,1500.0,0.0,16.299962,0.0,0.0,0.0,1108.0,1500.0,4.262640133849189e-05,0.0,0.008028514559173916,0.0,0.0,1.0,0.31543493270874023,0.002987724485256938,0.0,16.319584,1417.0,0.0,1568.0,5.0,1500.0,,,,,,,,,,,,,,,,
12.500229,-8.58409595489502,0.0,0.0,0.0,0.0,1.1455952995949207e-05,0.03306780755519867,1491.0,0.0,0.0,1019.0,0.0,-0.05305800926062762,0.0,5.0,4.7801923751831055,0.0,1500.0,0.0,16.379948,0.0,0.0,0.0,1092.0,1500.0,8.876972682178465e-06,0.0,0.008028514559173916,0.0,0.0,1.0,0.4063229560852051,3.965577753659467e-06,0.0,16.41961,1418.0,0.0,1569.0,5.0,1500.0,,,,,,,,,,,,,,,,
12.600184,-8.534126281738281,0.0,0.0,0.0,0.0,1.9826302924462796e-05,0.016506198793649673,1491.0,0.0,0.0,1019.0,0.0,-0.05305800926062762,0.0,5.0,4.784096717834473,0.0,1500.0,0.0,16.499943,0.0,0.0,0.0,1092.0,1500.0,7.579642706669689e-06,0.0,0.008028514559173916,0.0,0.0,1.0,0.4116693139076233,5.89249230309919e-06,0.0,16.519565,1418.0,0.0,1569.0,5.0,1500.0,,,,,,,,,,,,,,,,
12.700238,-8.588024139404297,0.0,0.0,0.0,0.0,1.72759775185697e-05,0.025761030614376068,1492.0,0.0,0.0,1020.0,0.0,-0.05305800926062762,0.0,5.0,4.7700300216674805,0.0,1500.0,0.0,16.580554,0.0,0.0,0.0,1092.0,1500.0,-5.138843132808393e-06,0.0,0.008028514559173916,0.0,0.0,1.0,0.2566250264644623,9.091921064212788e-06,0.0,16.619619,1418.0,0.0,1568.0,5.0,1500.0,,,,,,,,,,,,,,,,
12.80023,-8.578805923461914,0.0,0.0,0.0,0.0,1.7863416336960758e-05,0.02932094596326351,1491.0,0.0,0.0,1020.0,0.0,-0.05305800926062762,0.0,5.0,4.793014049530029,0.0,1500.0,0.0,16.699941,0.0,0.0,0.0,1093.0,1500.0,1.1951402712783681e-05,0.0,0.008028514559173916,0.0,0.0,1.0,0.40364977717399597,-6.710714575817306e-06,0.0,16.719611,1418.0,0.0,1568.0,5.0,1500.0,,,,,,,,,,,,,,,,
12.900239999999998,-10.159648895263672,0.0,0.0,0.0,0.0,-0.00038759881222091727,-0.030139680951833725,1491.0,0.0,0.0,1019.0,0.0,-0.05305800926062762,0.0,5.0,5.550053596496582,0.0,1500.0,0.0,16.77993,0.0,0.0,0.0,1092.0,1500.0,-6.132059259802313e-05,0.0,0.008028514559173916,0.0,0.0,1.0,0.4116693139076233,-0.006642735190552254,0.0,16.819620999999998,1418.0,0.0,1569.0,5.0,1500.0,,,,,,,,,,,,,,,,
13.000224000000001,-6.537394046783447,0.0,0.0,0.0,0.0,-0.0005078600085030944,0.07319605350494385,1491.0,0.0,0.0,1020.0,0.0,-0.05305800926062762,0.0,5.0,2.3557820320129395,0.0,1500.0,0.0,16.899849,0.0,0.0,0.0,1313.0,1500.0,-0.0002498840929929447,0.0,0.008028514559173916,0.0,0.0,1.0,0.35018622875213623,-0.020468993720510975,0.0,16.919605,1417.0,0.0,1568.0,5.0,1501.0,,,,,,,,,,,,,,,,
13.100222999999998,-9.47031021118164,0.0,0.0,0.0,0.0,-0.0002751720949111568,0.12709695100784302,1491.0,0.0,0.0,1019.0,0.0,-0.05305800926062762,0.0,5.0,2.6157405376434326,0.0,1500.0,0.0,16.979943,0.0,0.0,0.0,1509.0,1500.0,-0.00011797371255485375,0.0,0.008028514559173916,0.0,0.0,1.0,0.42770835757255554,-0.012635486385773238,0.0,17.019603999999998,1418.0,0.0,1568.0,5.0,1500.0,,,,,,,,,,,,,,,,
13.200189,-9.238282203674316,0.0,0.0,0.0,0.0,-0.0001096969284284933,0.26122477650642395,1491.0,0.0,0.0,1020.0,0.0,-0.05305800926062762,0.0,5.0,2.0989067554473877,0.0,1500.0,0.0,17.099932,0.0,0.0,0.0,1594.0,1500.0,-3.9047079673948924e-05,0.0,0.008028514559173916,0.0,0.0,1.0,0.47315236926078796,-0.0030623031386778398,0.0,17.11957,1417.0,0.0,1568.0,5.0,1501.0,,,,,,,,,,,,,,,,
13.300230999999998,-9.42149543762207,0.0,0.0,0.0,0.0,-0.00012062034267063727,0.1468791514635086,1491.0,0.0,0.0,1019.0,0.0,-0.05305800926062762,0.0,5.0,2.228023052215576,0.0,1500.0,0.0,17.179962,0.0,0.0,0.0,1602.0,1500.0,1.0776458025589597e-05,0.0,0.008028514559173916,0.0,0.0,1.0,0.4196888208389282,-8.99991672392621e-05,0.0,17.219611999999998,1418.0,0.0,1568.0,5.0,1500.0,,,,,,,,,,,,,,,,
13.400215000000001,-9.549901962280273,0.0,0.0,0.0,0.0,-4.4837390704914966e-05,0.04210827499628067,1491.0,0.0,0.0,1020.0,0.0,-0.05305800926062762,0.0,5.0,2.167585849761963,0.0,1500.0,0.0,17.299982999999997,0.0,0.0,0.0,1602.0,1500.0,-3.965229040721475e-06,0.0,0.008028514559173916,0.0,0.0,1.0,0.43305471539497375,-6.601551171580491e-07,0.0,17.319596,1418.0,0.0,1568.0,5.0,1500.0,,,,,,,,,,,,,,,,
13.500229,-9.52804183959961,0.0,0.0,0.0,0.0,6.787071889739256e-05,0.08669569343328476,1490.0,0.0,0.0,1019.0,0.0,-0.05305800926062762,0.0,5.0,2.170407772064209,0.0,1500.0,0.0,17.379856,0.0,0.0,0.0,1603.0,1501.0,-1.0654063594036909e-05,0.0,0.008028514559173916,0.0,0.0,1.0,0.5159232020378113,-2.639366575132658e-06,0.0,17.41961,1417.0,0.0,1569.0,5.0,1500.0,,,,,,,,,,,,,,,,
13.600214,-9.57948112487793,0.0,0.0,0.0,0.0,1.9037757570447147e-05,0.18334835767745972,1490.0,0.0,0.0,1019.0,0.0,-0.05305800926062762,0.0,5.0,2.2001476287841797,0.0,1501.0,0.0,17.499962999999997,0.0,0.0,0.0,1603.0,1500.0,-3.769611241661302e-06,0.0,0.008028514559173916,0.0,0.0,1.0,0.4517669677734375,4.078691290689137e-06,0.0,17.519595,1417.0,0.0,1569.0,5.0,1500.0,,,,,,,,,,,,,,,,
13.700239999999999,-9.71124267578125,0.0,0.0,0.0,0.0,-0.000116392200583294,0.14642079174518585,1491.0,0.0,0.0,1019.0,0.0,-0.05305800926062762,0.0,5.0,2.20462703704834,0.0,1500.0,0.0,17.580597,0.0,0.0,0.0,1605.0,1500.0,-7.969838642436306e-07,0.0,0.008028514559173916,0.0,0.0,1.0,0.379591166973114,-0.0013575355725833958,0.0,17.619621,1418.0,0.0,1568.0,5.0,1500.0,,,,,,,,,,,,,,,,
13.800187,-9.114936828613281,0.0,0.0,0.0,0.0,-0.00016868381721521082,0.09853476285934448,1491.0,0.0,0.0,1020.0,0.0,-0.05305800926062762,0.0,5.0,1.7747690677642822,0.0,1500.0,0.0,17.699913,0.0,0.0,0.0,1638.0,1500.0,-3.8502475909651075e-05,0.0,0.008028514559173916,0.0,0.0,1.0,0.4464206099510193,-0.004068960085599353,0.0,17.719568,1418.0,0.0,1568.0,5.0,1500.0,,,,,,,,,,,,,,,,
13.900208000000001,-8.948993682861328,0.0,0.0,0.0,0.0,-0.00011799007285537356,0.10390858352184296,1491.0,0.0,0.0,1019.0,0.0,-0.05305800926062762,0.0,5.0,1.3152059316635132,0.0,1500.0,0.0,17.779909,0.0,0.0,0.0,1687.0,1500.0,-5.378805991716718e-05,0.0,0.008028514559173916,0.0,0.0,1.0,0.4571133255958557,-0.005953722361386413,0.0,17.819589,1418.0,0.0,1568.0,5.0,1500.0,,,,,,,,,,,,,,,,
14.000254,-8.780165672302246,0.0,0.0,0.0,0.0,-0.00019268059887272577,0.2369833141565323,1491.0,0.0,0.0,1019.0,0.0,-0.05305800926062762,0.0,5.0,0.7266850471496582,0.0,1500.0,0.0,17.899953999999997,0.0,0.0,0.0,1781.0,1500.0,-0.00012949814230789667,0.0,0.008028514559173916,0.0,0.0,1.0,0.4170156419277191,-0.00887740406421075,0.0,17.919635,1418.0,0.0,1568.0,5.0,1500.0,,,,,,,,,,,,,,,,
14.100226000000001,-9.382967948913574,0.0,0.0,0.0,0.0,-0.0004579636113877164,0.28819358348846436,1491.0,0.0,0.0,1020.0,0.0,-0.05305800926062762,0.0,5.0,0.49972373247146606,0.0,1500.0,0.0,17.979945999999998,0.0,0.0,0.0,1843.0,1500.0,-0.00018012458430876496,0.0,0.008028514559173916,0.0,0.0,1.0,0.3341471552848816,-0.015112887828630246,0.0,18.019607,1418.0,0.0,1568.0,5.0,1500.0,,,,,,,,,,,,,,,,
14.200223,-9.509391784667969,0.0,0.0,0.0,0.0,-0.00021278699371810958,0.2039923071861267,1491.0,0.0,0.0,1020.0,0.0,-0.05305800926062762,0.0,5.0,0.012637821957468987,0.0,1500.0,0.0,18.099953,0.0,0.0,0.0,1986.0,1501.0,-6.682431797726074e-05,0.0,0.008028514559173916,0.0,0.0,1.0,0.5025573372840881,-0.007122037087590614,0.0,18.119604,1417.0,0.0,1569.0,5.0,1500.0,,,,,,,,,,,,,,,,
14.300247,-9.565362930297852,0.0,0.0,0.0,0.0,-0.00023426292370536735,0.13890790939331055,1491.0,0.0,0.0,1020.0,0.0,-0.05305800926062762,0.0,5.0,-0.28781870007514954,0.0,1500.0,0.0,18.179952,0.0,0.0,0.0,2065.0,1501.0,-9.356801278489297e-05,0.0,0.008028514559173916,0.0,0.0,1.0,0.3822643458843231,-0.007993073856371468,0.0,18.219628,1417.0,0.0,1568.0,5.0,1500.0,,,,,,,,,,,,,,,,
14.400208000000001,-9.802995681762695,0.0,0.0,0.0,0.0,7.197621968575726e-05,0.16073638200759888,1491.0,0.0,0.0,1020.0,0.0,-0.05305800926062762,0.0,5.0,-0.36298444867134094,0.0,1501.0,0.0,18.299951,0.0,0.0,0.0,2113.0,1500.0,-1.662271551393428e-05,0.0,0.008028514559173916,0.0,0.0,1.0,0.5212695598602295,-9.589095602099332e-05,0.0,18.319589,1417.0,0.0,1568.0,5.0,1500.0,,,,,,,,,,,,,,,,
14.500209,-9.788334846496582,0.0,0.0,0.0,0.0,1.8011093853401448e-05,0.2518913745880127,1491.0,0.0,0.0,1020.0,0.0,-0.05305800926062762,0.0,5.0,-0.367893248796463,0.0,1500.0,0.0,18.379963999999998,0.0,0.0,0.0,2113.0,1500.0,-1.91572231180953e-05,0.0,0.008028514559173916,0.0,0.0,1.0,0.3421666920185089,-1.2756271794367153e-05,0.0,18.41959,1418.0,0.0,1568.0,5.0,1500.0,,,,,,,,,,,,,,,,
14.600243999999998,-9.804500579833984,0.0,0.0,0.0,0.0,-5.5899266079600256e-05,0.23915860056877136,1491.0,0.0,0.0,1020.0,0.0,-0.05305800926062762,0.0,5.0,-0.3778117895126343,0.0,1500.0,0.0,18.499955999999997,0.0,0.0,0.0,2113.0,1500.0,2.4214752387664428e-05,0.0,0.008028514559173916,0.0,0.0,1.0,0.39830341935157776,-1.730483967317524e-05,0.0,18.519624999999998,1417.0,0.0,1569.0,5.0,1500.0,,,,,,,,,,,,,,,,
14.700224999999998,-9.918998718261719,0.0,0.0,0.0,0.0,1.7619517415686938e-05,0.15340161323547363,1491.0,0.0,0.0,1020.0,0.0,-0.05305800926062762,0.0,5.0,-0.29252856969833374,0.0,1500.0,0.0,18.580598,0.0,0.0,0.0,2112.0,1500.0,3.471127900695559e-05,0.0,0.008028514559173916,0.0,0.0,1.0,0.4945378005504608,0.0011272981443021025,0.0,18.619605999999997,1418.0,0.0,1569.0,5.0,1500.0,,,,,,,,,,,,,,,,
14.800208,-9.829974174499512,0.0,0.0,0.0,0.0,7.726514805434514e-05,0.18265703320503235,1490.0,0.0,0.0,1019.0,0.0,-0.05305800926062762,0.0,5.0,-0.3214517831802368,0.0,1500.0,0.0,18.699946,0.0,0.0,0.0,2103.0,1500.0,-1.1134566148579537e-05,0.0,0.008028514559173916,0.0,0.0,1.0,0.4116693139076233,0.000724038729024049,0.0,18.719589,1418.0,0.0,1569.0,5.0,1500.0,,,,,,,,,,,,,,,,
14.900229000000001,-9.838943481445312,0.0,0.0,0.0,0.0,-2.8836992414578277e-05,0.22404402494430542,1491.0,0.0,0.0,1020.0,0.0,-0.05305800926062762,0.0,5.0,-0.3189324140548706,0.0,1500.0,0.0,18.779933,0.0,0.0,0.0,2096.0,1500.0,-5.592076284804282e-05,0.0,0.008028514559173916,0.0,0.0,1.0,0.42770835757255554,-0.0013360772301223799,0.0,18.81961,1418.0,0.0,1568.0,5.0,1500.0,,,,,,,,,,,,,,,,
15.000178,-8.263734817504883,0.0,0.0,0.0,0.0,0.0005337179633049891,0.2439655214548111,1491.0,0.0,0.0,1020.0,0.0,-0.05305800926062762,0.0,5.0,-1.0556572675704956,0.0,1500.0,0.0,18.899943999999998,0.0,0.0,0.0,2088.0,1500.0,3.257262484406027e-05,0.0,0.008028514559173916,0.0,0.0,1.0,0.3769179880619049,0.010287893240111578,0.0,18.919559,1417.0,0.0,1568.0,5.0,1500.0,,,,,,,,,,,,,,,,
15.100219000000001,-10.725090980529785,0.0,0.0,0.0,0.0,0.0003275974547648093,0.13277892768383026,1491.0,0.0,0.0,1020.0,0.0,-0.05305800926062762,0.0,5.0,1.7762815952301025,0.0,1500.0,0.0,18.979972,0.0,0.0,0.0,1820.0,1500.0,0.0001247314431843165,0.0,0.008028514559173916,0.0,0.0,1.0,0.39830341935157776,0.0173569817958341,0.0,19.0196,1418.0,0.0,1568.0,5.0,1500.0,,,,,,,,,,,,,,,,
15.200256000000001,-8.895517349243164,0.0,0.0,0.0,0.0,0.00015177280931178897,0.19714894890785217,1491.0,0.0,0.0,1020.0,0.0,-0.05305800926062762,0.0,5.0,1.4453809261322021,0.0,1500.0,0.0,19.099911,0.0,0.0,0.0,1692.0,1500.0,8.753240290132449e-05,0.0,0.008028514559173916,0.0,0.0,1.0,0.5185964107513428,0.008529742948063117,0.0,19.119637,1418.0,0.0,1568.0,5.0,1500.0,,,,,,,,,,,,,,,,
15.300213000000001,-9.889063835144043,0.0,0.0,0.0,0.0,0.00011651303761664146,0.08302567154169083,1491.0,0.0,0.0,1019.0,0.0,-0.05305800926062762,0.0,5.0,2.017063856124878,0.0,1500.0,0.0,19.179859999999998,0.0,0.0,0.0,1646.0,1500.0,3.7816330757522796e-05,0.0,0.008028514559173916,0.0,0.0,1.0,0.39563024044036865,0.003643911513318625,0.0,19.219594,1418.0,0.0,1568.0,5.0,1500.0,,,,,,,,,,,,,,,,
15.400212999999999,-9.651531219482422,0.0,0.0,0.0,0.0,9.849179273723443e-06,0.1365586519241333,1491.0,0.0,0.0,1020.0,0.0,-0.05305800926062762,0.0,5.0,2.174576759338379,0.0,1500.0,0.0,19.299947,0.0,0.0,0.0,1609.0,1500.0,-7.369048029794185e-06,0.0,0.008028514559173916,0.0,0.0,1.0,0.3047422170639038,0.0013916116810059628,0.0,19.319594,1418.0,0.0,1568.0,5.0,1500.0,,,,,,,,,,,,,,,,
15.500262000000001,-9.624683380126953,0.0,0.0,0.0,0.0,-2.3959182631047118e-05,0.1171044185757637,1491.0,0.0,0.0,1020.0,0.0,-0.05305800926062762,0.0,5.0,2.1751322746276855,0.0,1500.0,0.0,19.379939,0.0,0.0,0.0,1602.0,1500.0,-1.4799936857728057e-05,0.0,0.008028514559173916,0.0,0.0,1.0,0.5747331380844116,9.368138284054418e-06,0.0,19.419643,1418.0,0.0,1568.0,5.0,1500.0,,,,,,,,,,,,,,,,
15.600174999999998,-9.614696502685547,0.0,0.0,0.0,0.0,-1.383660835027663e-05,0.09047773480415344,1491.0,0.0,0.0,1020.0,0.0,-0.05305800926062762,0.0,5.0,2.1744096279144287,0.0,1500.0,0.0,19.49995,0.0,0.0,0.0,1602.0,1500.0,-9.127414098195674e-06,0.0,0.008028514559173916,0.0,0.0,1.0,0.5292891263961792,-3.999888770152613e-06,0.0,19.519555999999998,1418.0,0.0,1568.0,5.0,1500.0,,,,,,,,,,,,,,,,
15.700231999999998,-9.519847869873047,0.0,0.0,0.0,0.0,3.9143441275097986e-05,0.07955455780029297,1490.0,0.0,0.0,1019.0,0.0,-0.05305800926062762,0.0,5.0,2.191399574279785,0.0,1500.0,0.0,19.580558999999997,0.0,0.0,0.0,1603.0,1500.0,1.493749712734798e-06,0.0,0.008028514559173916,0.0,0.0,1.0,0.5052304863929749,-3.85528541350905e-06,0.0,19.619612999999998,1417.0,0.0,1569.0,5.0,1501.0,,,,,,,,,,,,,,,,
15.800216,-9.563194274902344,0.0,0.0,0.0,0.0,3.479953766741004e-05,0.11915568262338638,1490.0,0.0,0.0,1019.0,0.0,-0.05305800926062762,0.0,5.0,2.1696670055389404,0.0,1500.0,0.0,19.699925,0.0,0.0,0.0,1603.0,1500.0,-1.0028167300721782e-05,0.0,0.008028514559173916,0.0,0.0,1.0,0.5373086333274841,-5.35730353414829e-06,0.0,19.719597,1417.0,0.0,1569.0,5.0,1501.0,,,,,,,,,,,,,,,,
15.900222999999999,-9.576116561889648,0.0,0.0,0.0,0.0,-1.4383142353706848e-05,0.13182654976844788,1491.0,0.0,0.0,1020.0,0.0,-0.05305800926062762,0.0,5.0,2.186887264251709,0.0,1500.0,0.0,19.779913999999998,0.0,0.0,0.0,1602.0,1500.0,7.6337188639206e-06,0.0,0.008028514559173916,0.0,0.0,1.0,0.4972109794616699,-1.0108673765250285e-06,0.0,19.819603999999998,1418.0,0.0,1568.0,5.0,1500.0,,,,,,,,,,,,,,,,
16.000241,-9.553813934326172,0.0,0.0,0.0,0.0,-1.7111460189572114e-05,0.10381871461868286,1491.0,0.0,0.0,1020.0,0.0,-0.05305800926062762,0.0,5.0,2.1560869216918945,0.0,1500.0,0.0,19.89996,0.0,0.0,0.0,1602.0,1500.0,5.650507874270077e-06,0.0,0.008028514559173916,0.0,0.0,1.0,0.49988415837287903,-9.742327330847637e-06,0.0,19.919622,1418.0,0.0,1568.0,5.0,1500.0,,,,,,,,,,,,,,,,
16.100212,-9.561004638671875,0.0,0.0,0.0,0.0,2.33912219573323e-06,0.08141762763261795,1490.0,0.0,0.0,1020.0,0.0,-0.05305800926062762,0.0,5.0,2.1775693893432617,0.0,1500.0,0.0,19.979948,0.0,0.0,0.0,1603.0,1500.0,5.894686680218091e-06,0.0,0.008028514559173916,0.0,0.0,1.0,0.4410742521286011,9.864806083372949e-06,0.0,20.019593,1418.0,0.0,1568.0,5.0,1500.0,,,,,,,,,,,,,,,,
16.200197,-9.550552368164062,0.0,0.0,0.0,0.0,3.933687561812909e-05,0.12406280636787415,1490.0,0.0,0.0,1020.0,0.0,-0.05305800926062762,0.0,5.0,2.1638665199279785,0.0,1500.0,0.0,20.099937999999998,0.0,0.0,0.0,1603.0,1500.0,-1.7747593861696111e-06,0.0,0.008028514559173916,0.0,0.0,1.0,0.4891914427280426,-2.4930013673231453e-06,0.0,20.119578,1418.0,0.0,1568.0,5.0,1500.0,,,,,,,,,,,,,,,,
16.300223999999996,-9.575960159301758,0.0,0.0,0.0,0.0,1.3070548250322384e-05,0.1298266053199768,1491.0,0.0,0.0,1019.0,0.0,-0.05305800926062762,0.0,5.0,2.1728546619415283,0.0,1500.0,0.0,20.179965,0.0,0.0,0.0,1602.0,1500.0,4.700214068496455e-06,0.0,0.008028514559173916,0.0,0.0,1.0,0.6602748036384583,-2.5150764455689205e-06,0.0,20.219604999999998,1418.0,0.0,1568.0,5.0,1500.0,,,,,,,,,,,,,,,,
16.400225999999996,-9.564603805541992,0.0,0.0,0.0,0.0,-5.086453902967637e-06,0.12527497112751007,1491.0,0.0,0.0,1019.0,0.0,-0.05305800926062762,0.0,5.0,2.1642894744873047,0.0,1500.0,0.0,20.299972999999998,0.0,0.0,0.0,1602.0,1500.0,-9.415180243540854e-06,0.0,0.008028514559173916,0.0,0.0,1.0,0.5480013489723206,-3.1934229236447734e-06,0.0,20.319606999999998,1418.0,0.0,1568.0,5.0,1500.0,,,,,,,,,,,,,,,,
16.500231999999997,-9.555542945861816,0.0,0.0,0.0,0.0,-2.095656968714993e-05,0.11522994190454483,1491.0,0.0,0.0,1020.0,0.0,-0.05305800926062762,0.0,5.0,2.1499812602996826,0.0,1500.0,0.0,20.379951,0.0,0.0,0.0,1602.0,1500.0,-4.899975024262719e-06,0.0,0.008028514559173916,0.0,0.0,1.0,0.46780601143836975,4.422223250967838e-07,0.0,20.419613,1418.0,0.0,1568.0,5.0,1500.0,,,,,,,,,,,,,,,,
16.600215999999996,-9.563898086547852,0.0,0.0,0.0,0.0,1.0398456248552288e-05,0.10772428661584854,1490.0,0.0,0.0,1020.0,0.0,-0.05305800926062762,0.0,5.0,2.162075996398926,0.0,1500.0,0.0,20.499952999999998,0.0,0.0,0.0,1603.0,1500.0,1.5358666416771164e-06,0.0,0.008028514559173916,0.0,0.0,1.0,0.5613672137260437,-2.4570989194611304e-06,0.0,20.519596999999997,1418.0,0.0,1568.0,5.0,1500.0,,,,,,,,,,,,,,,,
16.700238999999996,-9.564071655273438,0.0,0.0,0.0,0.0,1.150253068212854e-05,0.11347116529941559,1490.0,0.0,0.0,1019.0,0.0,-0.05305800926062762,0.0,5.0,2.148221015930176,0.0,1500.0,0.0,20.580579999999998,0.0,0.0,0.0,1603.0,1500.0,-7.611982339459488e-06,0.0,0.008028514559173916,0.0,0.0,1.0,0.39830341935157776,-6.822724828795529e-06,0.0,20.619619999999998,1417.0,0.0,1569.0,5.0,1501.0,,,,,,,,,,,,,,,,
16.800231999999998,-9.563563346862793,0.0,0.0,0.0,0.0,9.94771975928258e-07,0.129609152674675,1490.0,0.0,0.0,1019.0,0.0,-0.05305800926062762,0.0,5.0,2.152942180633545,0.0,1500.0,0.0,20.699918999999998,0.0,0.0,0.0,1603.0,1500.0,9.249605346681797e-06,0.0,0.008028514559173916,0.0,0.0,1.0,0.4063229560852051,5.112086970687796e-06,0.0,20.719613,1417.0,0.0,1569.0,5.0,1500.0,,,,,,,,,,,,,,,,
16.900202999999998,-9.569925308227539,0.0,0.0,0.0,0.0,-1.2084995579050091e-05,0.11228091269731522,1491.0,0.0,0.0,1020.0,0.0,-0.05305800926062762,0.0,5.0,2.1557295322418213,0.0,1500.0,0.0,20.779972,0.0,0.0,0.0,1602.0,1500.0,3.2561254719655293e-06,0.0,0.008028514559173916,0.0,0.0,1.0,0.3769179880619049,-9.875651995466183e-06,0.0,20.819584,1418.0,0.0,1568.0,5.0,1500.0,,,,,,,,,,,,,,,,
17.000258,-9.563498497009277,0.0,0.0,0.0,0.0,5.302470012016758e-06,0.10801442712545395,1491.0,0.0,0.0,1020.0,0.0,-0.05305800926062762,0.0,5.0,2.1590821743011475,0.0,1500.0,0.0,20.900401,0.0,0.0,0.0,1602.0,1500.0,-5.42932786758421e-06,0.0,0.008028514559173916,0.0,0.0,1.0,0.4571133255958557,-5.515799532968226e-06,0.0,20.919639,1418.0,0.0,1568.0,5.0,1500.0,,,,,,,,,,,,,,,,
17.100212,-9.571077346801758,0.0,0.0,0.0,0.0,2.3841515253538065e-05,0.10042668879032135,1490.0,0.0,0.0,1019.0,0.0,-0.05305800926062762,0.0,5.0,2.1666481494903564,0.0,1501.0,0.0,20.979948,0.0,0.0,0.0,1603.0,1500.0,-1.5350665575567507e-05,0.0,0.008028514559173916,0.0,0.0,1.0,0.39295706152915955,2.5711343996553386e-06,0.0,21.019593,1417.0,0.0,1569.0,5.0,1500.0,,,,,,,,,,,,,,,,
17.200211,-9.572537422180176,0.0,0.0,0.0,0.0,-1.6560375520397926e-07,0.12788432836532593,1490.0,0.0,0.0,1019.0,0.0,-0.05305800926062762,0.0,5.0,2.1576359272003174,0.0,1500.0,0.0,21.099942,0.0,0.0,0.0,1603.0,1500.0,2.463044055988819e-06,0.0,0.008028514559173916,0.0,0.0,1.0,0.43038153648376465,-8.341491837569379e-06,0.0,21.119592,1417.0,0.0,1569.0,5.0,1501.0,,,,,,,,,,,,,,,,
17.300251999999997,-9.557613372802734,0.0,0.0,0.0,0.0,-1.802829939547816e-05,0.11623992770910263,1491.0,0.0,0.0,1019.0,0.0,-0.05305800926062762,0.0,5.0,2.1641499996185303,0.0,1500.0,0.0,21.179948,0.0,0.0,0.0,1602.0,1500.0,-1.4530976321108792e-05,0.0,0.008028514559173916,0.0,0.0,1.0,0.4116693139076233,-4.8093005171468085e-06,0.0,21.219632999999998,1418.0,0.0,1568.0,5.0,1500.0,,,,,,,,,,,,,,,,
17.400183,-9.557941436767578,0.0,0.0,0.0,0.0,9.934863604724522e-06,0.0930108055472374,1491.0,0.0,0.0,1019.0,0.0,-0.05305800926062762,0.0,5.0,2.1883182525634766,0.0,1500.0,0.0,21.299951,0.0,0.0,0.0,1602.0,1500.0,2.498868786327873e-06,0.0,0.008028514559173916,0.0,0.0,1.0,0.2993958592414856,-1.2070398907548071e-05,0.0,21.319564,1418.0,0.0,1568.0,5.0,1500.0,,,,,,,,,,,,,,,,
17.500249999999998,-9.564188003540039,0.0,0.0,0.0,0.0,2.624759236519642e-06,0.118050716817379,1491.0,0.0,0.0,1020.0,0.0,-0.05305800926062762,0.0,5.0,2.161313056945801,0.0,1500.0,0.0,21.379927,0.0,0.0,0.0,1602.0,1500.0,-7.431953507202672e-06,0.0,0.008028514559173916,0.0,0.0,1.0,0.5693867802619934,4.479695930649922e-06,0.0,21.419631,1418.0,0.0,1568.0,5.0,1500.0,,,,,,,,,,,,,,,,
17.600230999999997,-9.565443992614746,0.0,0.0,0.0,0.0,-1.2907336372527478e-06,0.11538790166378021,1490.0,0.0,0.0,1020.0,0.0,-0.05305800926062762,0.0,5.0,2.1634762287139893,0.0,1500.0,0.0,21.499959,0.0,0.0,0.0,1603.0,1500.0,8.234400138675025e-07,0.0,0.008028514559173916,0.0,0.0,1.0,0.5693867802619934,9.659661284300381e-06,0.0,21.519612,1418.0,0.0,1568.0,5.0,1500.0,,,,,,,,,,,,,,,,
17.700219999999998,-9.565530776977539,0.0,0.0,0.0,0.0,8.446361983609677e-07,0.11934889107942581,1491.0,0.0,0.0,1019.0,0.0,-0.05305800926062762,0.0,5.0,2.153684139251709,0.0,1500.0,0.0,21.580621999999998,0.0,0.0,0.0,1602.0,1500.0,-8.272129710263124e-06,0.0,0.008028514559173916,0.0,0.0,1.0,0.46780601143836975,-1.1983351218170343e-05,0.0,21.619601,1418.0,0.0,1568.0,5.0,1500.0,,,,,,,,,,,,,,,,
17.800237999999997,-9.56551742553711,0.0,0.0,0.0,0.0,-2.4039222536459026e-05,0.12696465849876404,1491.0,0.0,0.0,1019.0,0.0,-0.05305800926062762,0.0,5.0,2.1640286445617676,0.0,1500.0,0.0,21.69993,0.0,0.0,0.0,1602.0,1500.0,-3.817182493036138e-06,0.0,0.008028514559173916,0.0,0.0,1.0,0.5693867802619934,-1.909848060774189e-06,0.0,21.719618999999998,1418.0,0.0,1568.0,5.0,1500.0,,,,,,,,,,,,,,,,
17.900222,-9.558879852294922,0.0,0.0,0.0,0.0,-1.140681317130049e-05,0.1100984662771225,1491.0,0.0,0.0,1020.0,0.0,-0.05305800926062762,0.0,5.0,2.150195598602295,0.0,1500.0,0.0,21.780001,0.0,0.0,0.0,1602.0,1500.0,6.38751228774788e-06,0.0,0.008028514559173916,0.0,0.0,1.0,0.3368203341960907,1.3374153277642796e-06,0.0,21.819603,1418.0,0.0,1568.0,5.0,1500.0,,,,,,,,,,,,,,,,
18.000176999999997,-9.757536888122559,0.0,0.0,0.0,0.0,-5.90262006464365e-05,0.10318831354379654,1491.0,0.0,0.0,1020.0,0.0,-0.05305800926062762,0.0,5.0,2.2251477241516113,0.0,1500.0,0.0,21.899986,0.0,0.0,0.0,1611.0,1500.0,-3.047349181944248e-05,0.0,0.008028514559173916,0.0,0.0,1.0,0.5052304863929749,-0.0016279929751086904,0.0,21.919558,1418.0,0.0,1568.0,5.0,1500.0,,,,,,,,,,,,,,,,
18.100239,-8.741035461425781,0.0,0.0,0.0,0.0,-0.00024075476897392328,0.17667949199676514,1491.0,0.0,0.0,1020.0,0.0,-0.05305800926062762,0.0,5.0,1.425628662109375,0.0,1500.0,0.0,21.979965,0.0,0.0,0.0,1641.0,1500.0,-9.300060375320388e-05,0.0,0.008028514559173916,0.0,0.0,1.0,0.5426549911499023,-0.00955532212266343,0.0,22.01962,1418.0,0.0,1568.0,5.0,1500.0,,,,,,,,,,,,,,,,
18.200618,-9.37898063659668,0.0,0.0,0.0,0.0,-0.0005897425242544172,0.16550135612487793,1490.0,0.0,0.0,1019.0,0.0,-0.05305800926062762,0.0,5.0,0.8675703406333923,0.0,1500.0,0.0,22.099935,0.0,0.0,0.0,1791.0,1501.0,-0.00021402140399339522,0.0,0.008028514559173916,0.0,0.0,1.0,0.4490937888622284,-0.02093658030949624,0.0,22.119999,1417.0,0.0,1569.0,5.0,1500.0,,,,,,,,,,,,,,,,
18.300247,-9.150201797485352,0.0,0.0,0.0,0.0,-0.0006132575994977201,0.24899989366531372,1490.0,0.0,0.0,1019.0,0.0,-0.05305800926062762,0.0,5.0,-0.13054081797599792,0.0,1500.0,0.0,22.179963,0.0,0.0,0.0,1901.0,1500.0,-0.00019809758946450815,0.0,0.008028514559173916,0.0,0.0,1.0,0.5480013489723206,-0.017687700630140708,0.0,22.219628,1418.0,0.0,1569.0,5.0,1500.0,,,,,,,,,,,,,,,,
18.400225,-9.725363731384277,0.0,0.0,0.0,0.0,-0.00014847440042775595,0.1389842927455902,1491.0,0.0,0.0,1019.0,0.0,-0.05305800926062762,0.0,5.0,-0.37182748317718506,0.0,1500.0,0.0,22.299944999999997,0.0,0.0,0.0,2112.0,1500.0,1.3982266227035664e-05,0.0,0.008028514559173916,0.0,0.0,1.0,0.5025573372840881,-0.0011206943370365467,0.0,22.319606,1418.0,0.0,1569.0,5.0,1500.0,,,,,,,,,,,,,,,,
18.500217,-9.776013374328613,0.0,0.0,0.0,0.0,-7.320318533348395e-05,0.1517837643623352,1491.0,0.0,0.0,1019.0,0.0,-0.05305800926062762,0.0,5.0,-0.3871052861213684,0.0,1500.0,0.0,22.379925999999998,0.0,0.0,0.0,2113.0,1500.0,1.3970347508350968e-05,0.0,0.008028514559173916,0.0,0.0,1.0,0.5747331380844116,-1.8112449694326673e-05,0.0,22.419598,1418.0,0.0,1569.0,5.0,1500.0,,,,,,,,,,,,,,,,
18.600188,-6.295929908752441,0.0,0.0,0.0,0.0,0.0014051703958760987,0.1776694655418396,1490.0,0.0,0.0,1019.0,0.0,-0.05305800926062762,0.0,5.0,-1.1601536273956299,0.0,1500.0,0.0,22.499852,0.0,0.0,0.0,2013.0,1500.0,0.00034853919208809996,0.0,0.008028514559173916,0.0,0.0,1.0,0.5373086333274841,0.041077403924087603,0.0,22.519569,1418.0,0.0,1569.0,5.0,1500.0,,,,,,,,,,,,,,,,
18.700232999999997,-10.98214054107666,0.0,0.0,0.0,0.0,0.000515378822263296,0.1255318969488144,1490.0,0.0,0.0,1019.0,0.0,-0.05305800926062762,0.0,5.0,2.348137378692627,0.0,1500.0,0.0,22.580603,0.0,0.0,0.0,1705.0,1500.0,8.563773706025228e-05,0.0,0.008028514559173916,0.0,0.0,1.0,0.4597865045070648,0.01543619974615507,0.0,22.619614,1418.0,0.0,1569.0,5.0,1500.0,,,,,,,,,,,,,,,,
18.800226,-8.958772659301758,0.0,0.0,0.0,0.0,-0.0002362650896432977,0.2698337435722351,1491.0,0.0,0.0,1019.0,0.0,-0.05305800926062762,0.0,5.0,1.9939723014831543,0.0,1500.0,0.0,22.699941,0.0,0.0,0.0,1606.0,1500.0,-1.0466590261210572e-06,0.0,0.008028514559173916,0.0,0.0,1.0,0.42236199975013733,0.0021294222558096514,0.0,22.719607,1417.0,0.0,1569.0,5.0,1500.0,,,,,,,,,,,,,,,,
18.900219999999997,-10.000349998474121,0.0,0.0,0.0,0.0,-0.0001141152254841733,-0.0003238273784518242,1491.0,0.0,0.0,1020.0,0.0,-0.05305800926062762,0.0,5.0,2.540356159210205,0.0,1500.0,0.0,22.779918,0.0,0.0,0.0,1593.0,1500.0,7.396815332445542e-05,0.0,0.008028514559173916,0.0,0.0,1.0,0.4544401466846466,0.003448385815110695,0.0,22.819601,1418.0,0.0,1568.0,5.0,1500.0,,,,,,,,,,,,,,,,
19.000228999999997,-10.900744438171387,0.0,0.0,0.0,0.0,0.0003650300499191563,-0.16545015573501587,1490.0,0.0,0.0,1019.0,0.0,-0.05305800926062762,0.0,5.0,3.7325096130371094,0.0,1500.0,0.0,22.899938,0.0,0.0,0.0,1508.0,1500.0,0.00012375258844283353,0.0,0.008028514559173916,0.0,0.0,1.0,0.4544401466846466,0.016026174191688985,0.0,22.91961,1418.0,0.0,1569.0,5.0,1500.0,,,,,,,,,,,,,,,,
19.100216999999997,-10.075674057006836,0.0,0.0,0.0,0.0,0.0009872723070925037,-0.07159902900457382,1491.0,0.0,0.0,1019.0,0.0,-0.05305800926062762,0.0,5.0,4.711996555328369,0.0,1500.0,0.0,22.979910999999998,0.0,0.0,0.0,1300.0,1500.0,0.0003205614364800566,0.0,0.008028514559173916,0.0,0.0,1.0,0.43305471539497375,0.02377174623588637,0.0,23.019598,1418.0,0.0,1568.0,5.0,1500.0,,,,,,,,,,,,,,,,
19.200190999999997,-9.163839340209961,0.0,0.0,0.0,0.0,3.10927430105656e-05,-0.0015484828036278486,1491.0,0.0,0.0,1020.0,0.0,-0.05305800926062762,0.0,5.0,5.117433547973633,0.0,1500.0,0.0,23.099926,0.0,0.0,0.0,1092.0,1500.0,-1.2520270598890709e-05,0.0,0.008028514559173916,0.0,0.0,1.0,0.558694064617157,0.0020439900506122135,0.0,23.119571999999998,1418.0,0.0,1568.0,5.0,1500.0,,,,,,,,,,,,,,,,
19.300205,-8.587583541870117,0.0,0.0,0.0,0.0,-5.893791354035273e-05,0.0369512178003788,1490.0,0.0,0.0,1019.0,0.0,-0.05305800926062762,0.0,5.0,4.723694801330566,0.0,1500.0,0.0,23.179949,0.0,0.0,0.0,1093.0,1500.0,-2.4922658446221805e-06,0.0,0.008028514559173916,0.0,0.0,1.0,0.585425853729248,-1.7110619011676536e-05,0.0,23.219586,1418.0,0.0,1569.0,5.0,1500.0,,,,,,,,,,,,,,,,
19.400247999999998,-11.985958099365234,0.0,0.0,0.0,0.0,-0.0006737401594740351,-0.13890959322452545,1490.0,0.0,0.0,1019.0,0.0,-0.05305800926062762,0.0,5.0,6.242830276489258,0.0,1500.0,0.0,23.299957,0.0,0.0,0.0,1093.0,1500.0,-0.00011140335734937713,0.0,0.008028514559173916,0.0,0.0,1.0,0.558694064617157,-0.01707043086402808,0.0,23.319629,1418.0,0.0,1569.0,5.0,1500.0,,,,,,,,,,,,,,,,
19.500242999999998,-7.79376745223999,0.0,0.0,0.0,0.0,-0.000219343792549385,-0.05267363041639328,1492.0,0.0,0.0,1020.0,0.0,-0.05305800926062762,0.0,5.0,2.4585516452789307,0.0,1500.0,0.0,23.379913,0.0,0.0,0.0,1411.0,1500.0,-0.00017469745081829965,0.0,0.008028514559173916,0.0,0.0,1.0,0.4811719059944153,-0.01606975224562001,0.0,23.419624,1418.0,0.0,1569.0,5.0,1500.0,,,,,,,,,,,,,,,,
19.600210999999998,-9.332277297973633,0.0,0.0,0.0,0.0,0.0005434660366529591,0.1506776362657547,1493.0,0.0,0.0,1019.0,0.0,-0.05305800926062762,0.0,5.0,2.299807071685791,0.0,1500.0,0.0,23.499945999999998,0.0,0.0,0.0,1586.0,1500.0,4.013590166267582e-06,0.0,0.008028514559173916,0.0,0.0,1.0,0.5800794959068298,-0.003309025768173616,0.0,23.519592,1417.0,0.0,1571.0,5.0,1500.0,,,,,,,,,,,,,,,,
19.700225999999997,-9.582551956176758,0.0,0.0,0.0,0.0,-0.00014872251133399964,0.34398674964904785,1493.0,0.0,0.0,1020.0,0.0,-0.05305800926062762,0.0,5.0,2.1649036407470703,0.0,1500.0,0.0,23.580612,0.0,0.0,0.0,1611.0,1500.0,-4.980319704274471e-05,0.0,0.008028514559173916,0.0,0.0,1.0,0.6415625214576721,-0.0025042353915828083,0.0,23.619607,1417.0,0.0,1570.0,5.0,1501.0,,,,,,,,,,,,,,,,
19.800188999999996,-8.125914573669434,0.0,0.0,0.0,0.0,-0.0006609281830101385,0.2380923628807068,1493.0,0.0,0.0,1020.0,0.0,-0.05305800926062762,0.0,5.0,0.9368905425071716,0.0,1500.0,0.0,23.699937,0.0,0.0,0.0,1702.0,1500.0,-0.00010804334335956164,0.0,0.008028514559173916,0.0,0.0,1.0,0.5667135715484619,-0.013112730054601942,0.0,23.719569999999997,1418.0,0.0,1570.0,5.0,1500.0,,,,,,,,,,,,,,,,
19.900218999999996,-10.36943244934082,0.0,0.0,0.0,0.0,-0.0005502977665552648,-0.06551898270845413,1493.0,0.0,0.0,1020.0,0.0,-0.05305800926062762,0.0,5.0,1.2092839479446411,0.0,1500.0,0.0,23.779850999999997,0.0,0.0,0.0,1817.0,1500.0,-0.00011200113005853369,0.0,0.008028514559173916,0.0,0.0,1.0,0.5159232020378113,-0.01347684347256192,0.0,23.819599999999998,1418.0,0.0,1570.0,5.0,1500.0,,,,,,,,,,,,,,,,
20.000230999999996,-9.912400245666504,0.0,0.0,0.0,0.0,-0.00042408499690585043,0.1276363730430603,1493.0,0.0,0.0,1020.0,0.0,-0.05305800926062762,0.0,5.0,0.14159175753593445,0.0,1500.0,0.0,23.899853,0.0,0.0,0.0,2006.0,1500.0,-0.00021443131363920587,0.0,0.008028514559173916,0.0,0.0,1.0,0.46513283252716064,-0.016749862210485498,0.0,23.919611999999997,1418.0,0.0,1570.0,5.0,1500.0,,,,,,,,,,,,,,,,
20.100226999999997,-9.983190536499023,0.0,0.0,0.0,0.0,2.3936409872946526e-05,0.28711166977882385,1493.0,0.0,0.0,1019.0,0.0,-0.05305800926062762,0.0,5.0,-0.37582552433013916,0.0,1500.0,0.0,23.979988,0.0,0.0,0.0,2112.0,1500.0,-2.298193303579e-05,0.0,0.008028514559173916,0.0,0.0,1.0,0.5132500529289246,-0.00053509209851149,0.0,24.019607999999998,1418.0,0.0,1570.0,5.0,1500.0,,,,,,,,,,,,,,,,
20.200217,-9.918013572692871,0.0,0.0,0.0,0.0,-0.00023337724059088836,0.22836624085903168,1493.0,0.0,0.0,1020.0,0.0,-0.05305800926062762,0.0,5.0,-0.38101547956466675,0.0,1500.0,0.0,24.099957999999997,0.0,0.0,0.0,2112.0,1500.0,5.130868197445721e-05,0.0,0.008028514559173916,0.0,0.0,1.0,0.5292891263961792,-7.202310417836711e-06,0.0,24.119598,1418.0,0.0,1570.0,5.0,1500.0,,,,,,,,,,,,,,,,
20.300219999999996,-8.422574043273926,0.0,0.0,0.0,0.0,0.000124309919594421,0.08514411002397537,1492.0,0.0,0.0,1019.0,0.0,-0.05305800926062762,0.0,5.0,-0.9714125990867615,0.0,1500.0,0.0,24.179959,0.0,0.0,0.0,2113.0,1500.0,3.276182078832282e-05,0.0,0.008028514559173916,0.0,0.0,1.0,0.5399817824363708,0.0031903603554415943,0.0,24.219600999999997,1418.0,0.0,1570.0,5.0,1500.0,,,,,,,,,,,,,,,,
20.400184999999997,-10.497892379760742,0.0,0.0,0.0,0.0,0.0007048574673173484,0.0862303078174591,1492.0,0.0,0.0,1020.0,0.0,-0.05305800926062762,0.0,5.0,1.0868170261383057,0.0,1500.0,0.0,24.299951999999998,0.0,0.0,0.0,1761.0,1500.0,0.00023350124728007424,0.0,0.008028514559173916,0.0,0.0,1.0,0.5667135715484619,0.020317052057943548,0.0,24.319566,1418.0,0.0,1569.0,5.0,1500.0,,,,,,,,,,,,,,,,
20.500234,-9.664161682128906,0.0,0.0,0.0,0.0,-0.00018192264066534692,0.06621380150318146,1493.0,0.0,0.0,1020.0,0.0,-0.05305800926062762,0.0,5.0,1.9123928546905518,0.0,1500.0,0.0,24.379925999999998,0.0,0.0,0.0,1639.0,1500.0,-4.750594020991951e-05,0.0,0.008028514559173916,0.0,0.0,1.0,0.5346354842185974,0.003951278013890924,0.0,24.419615,1418.0,0.0,1571.0,5.0,1500.0,,,,,,,,,,,,,,,,
20.600205999999996,-9.750814437866211,0.0,0.0,0.0,0.0,7.331839013222624e-05,0.09570231288671494,1493.0,0.0,0.0,1020.0,0.0,-0.05305800926062762,0.0,5.0,2.2259669303894043,0.0,1500.0,0.0,24.499938,0.0,0.0,0.0,1600.0,1500.0,2.837349323496113e-05,0.0,0.008028514559173916,0.0,0.0,1.0,0.6121575832366943,0.0016444822074752142,0.0,24.519586999999998,1418.0,0.0,1570.0,5.0,1500.0,,,,,,,,,,,,,,,,
20.700253999999997,-10.413087844848633,0.0,0.0,0.0,0.0,0.00019047152755445105,-0.03511715307831764,1493.0,0.0,0.0,1019.0,0.0,-0.05305800926062762,0.0,5.0,2.8832430839538574,0.0,1500.0,0.0,24.580586,0.0,0.0,0.0,1581.0,1500.0,4.350097033922978e-05,0.0,0.008028514559173916,0.0,0.0,1.0,0.5720599293708801,0.007704836602640829,0.0,24.619635,1417.0,0.0,1571.0,5.0,1501.0,,,,,,,,,,,,,,,,
20.800231999999998,-8.071056365966797,0.0,0.0,0.0,0.0,0.0009849425612873347,0.08459263294935226,1493.0,0.0,0.0,1020.0,0.0,-0.05305800926062762,0.0,5.0,2.8193938732147217,0.0,1500.0,0.0,24.699958,0.0,0.0,0.0,1455.0,1500.0,0.00021399650187675702,0.0,0.008028514559173916,0.0,0.0,1.0,0.5212695598602295,0.027290206477179776,0.0,24.719613,1418.0,0.0,1571.0,5.0,1500.0,,,,,,,,,,,,,,,,
20.900219999999997,-11.896398544311523,0.0,0.0,0.0,0.0,0.0006865131898077325,-0.15317082405090332,1494.0,0.0,0.0,1019.0,0.0,-0.05305800926062762,0.0,5.0,6.253955364227295,0.0,1500.0,0.0,24.77993,0.0,0.0,0.0,1188.0,1500.0,0.0002433916463025117,0.0,0.008028514559173916,0.0,0.0,1.0,0.4784987270832062,0.014623397779976382,0.0,24.819601,1418.0,0.0,1572.0,5.0,1500.0,,,,,,,,,,,,,,,,
21.000192999999996,-8.788701057434082,0.0,0.0,0.0,0.0,6.446242454729992e-05,-0.07088291645050049,1491.0,0.0,0.0,1020.0,0.0,-0.05305800926062762,0.0,5.0,4.828854084014893,0.0,1500.0,0.0,24.899915,0.0,0.0,0.0,1092.0,1500.0,2.9446356717682352e-05,0.0,0.008028514559173916,0.0,0.0,1.0,0.6602748036384583,8.762102322763742e-05,0.0,24.919573999999997,1418.0,0.0,1569.0,5.0,1500.0,,,,,,,,,,,,,,,,
21.100219999999997,-12.204484939575195,0.0,0.0,0.0,0.0,-0.0007075033334648016,-0.056546345353126526,1492.0,0.0,0.0,1019.0,0.0,-0.05305800926062762,0.0,5.0,6.382551193237305,0.0,1500.0,0.0,24.979955999999998,0.0,0.0,0.0,1092.0,1500.0,-7.656805946225167e-05,0.0,0.008028514559173916,0.0,0.0,1.0,0.4624596834182739,-0.02186792519339978,0.0,25.019600999999998,1418.0,0.0,1569.0,5.0,1500.0,,,,,,,,,,,,,,,,
21.200229999999998,-7.348484992980957,0.0,0.0,0.0,0.0,-0.00016395623489560575,0.09704302251338959,1491.0,0.0,0.0,1020.0,0.0,-0.05305800926062762,0.0,5.0,2.0996975898742676,0.0,1500.0,0.0,25.09994,0.0,0.0,0.0,1541.0,1500.0,-0.00014905158662860814,0.0,0.008028514559173916,0.0,0.0,1.0,0.4571133255958557,-0.012539747825179491,0.0,25.119611,1418.0,0.0,1568.0,5.0,1500.0,,,,,,,,,,,,,,,,
21.300213999999997,-9.432433128356934,0.0,0.0,0.0,0.0,0.0004890076757991945,0.08490078151226044,1491.0,0.0,0.0,1020.0,0.0,-0.05305800926062762,0.0,5.0,2.3148655891418457,0.0,1500.0,0.0,25.179972,0.0,0.0,0.0,1591.0,1500.0,3.0171795443053615e-05,0.0,0.008028514559173916,0.0,0.0,1.0,0.49988415837287903,-0.0017076152499182547,0.0,25.219594999999998,1417.0,0.0,1568.0,5.0,1500.0,,,,,,,,,,,,,,,,
21.400209999999998,-9.357479095458984,0.0,0.0,0.0,0.0,-6.570922086232335e-05,0.26151442527770996,1491.0,0.0,0.0,1019.0,0.0,-0.05305800926062762,0.0,5.0,2.1544995307922363,0.0,1500.0,0.0,25.299948,0.0,0.0,0.0,1602.0,1500.0,-4.3242822189497756e-05,0.0,0.008028514559173916,0.0,0.0,1.0,0.5747331380844116,5.778398407773345e-05,0.0,25.319591,1418.0,0.0,1568.0,5.0,1500.0,,,,,,,,,,,,,,,,
21.500231999999997,-9.22111701965332,0.0,0.0,0.0,0.0,-0.00022197566344721325,0.23770883679389954,1491.0,0.0,0.0,1020.0,0.0,-0.05305800926062762,0.0,5.0,2.096247434616089,0.0,1500.0,0.0,25.379951,0.0,0.0,0.0,1602.0,1500.0,6.057808141548376e-06,0.0,0.008028514559173916,0.0,0.0,1.0,0.5480013489723206,2.2370116313072486e-05,0.0,25.419613,1418.0,0.0,1568.0,5.0,1500.0,,,,,,,,,,,,,,,,
21.600191,-9.569385528564453,0.0,0.0,0.0,0.0,-0.00016454848915267438,-0.053577721118927,1491.0,0.0,0.0,1019.0,0.0,-0.05305800926062762,0.0,5.0,2.2429628372192383,0.0,1500.0,0.0,25.499964,0.0,0.0,0.0,1603.0,1500.0,1.9907393286328838e-05,0.0,0.008028514559173916,0.0,0.0,1.0,0.5613672137260437,1.5007745386803291e-05,0.0,25.519572,1417.0,0.0,1568.0,5.0,1500.0,,,,,,,,,,,,,,,,
21.700210999999996,-9.578147888183594,0.0,0.0,0.0,0.0,6.049080920881748e-05,-0.04521966725587845,1490.0,0.0,0.0,1019.0,0.0,-0.05305800926062762,0.0,5.0,2.225541353225708,0.0,1500.0,0.0,25.580624,0.0,0.0,0.0,1603.0,1500.0,-5.087456103443468e-06,0.0,0.008028514559173916,0.0,0.0,1.0,0.47582554817199707,2.915084929750105e-05,0.0,25.619591999999997,1417.0,0.0,1569.0,5.0,1500.0,,,,,,,,,,,,,,,,
21.80024,-9.606855392456055,0.0,0.0,0.0,0.0,0.00012412609581043842,0.1692238748073578,1491.0,0.0,0.0,1020.0,0.0,-0.05305800926062762,0.0,5.0,2.164130687713623,0.0,1500.0,0.0,25.699939999999998,0.0,0.0,0.0,1602.0,1500.0,3.6146712004850848e-06,0.0,0.008028514559173916,0.0,0.0,1.0,0.5292891263961792,-7.808575163260339e-06,0.0,25.719621,1418.0,0.0,1568.0,5.0,1500.0,,,,,,,,,,,,,,,,
21.900204999999996,-9.669881820678711,0.0,0.0,0.0,0.0,-8.829188494949869e-05,0.18558543920516968,1491.0,0.0,0.0,1020.0,0.0,-0.05305800926062762,0.0,5.0,2.1718318462371826,0.0,1500.0,0.0,25.780379,0.0,0.0,0.0,1602.0,1500.0,1.7336698778012614e-05,0.0,0.008028514559173916,0.0,0.0,1.0,0.5025573372840881,-1.7710391042208083e-05,0.0,25.819585999999997,1418.0,0.0,1568.0,5.0,1500.0,,,,,,,,,,,,,,,,
22.000251999999996,-9.541252136230469,0.0,0.0,0.0,0.0,-0.00015479393020121954,0.027618376538157463,1491.0,0.0,0.0,1019.0,0.0,-0.05305800926062762,0.0,5.0,2.1852447986602783,0.0,1500.0,0.0,25.899953,0.0,0.0,0.0,1603.0,1500.0,-7.596167585473411e-06,0.0,0.008028514559173916,0.0,0.0,1.0,0.5480013489723206,-8.528832720434198e-06,0.0,25.919632999999997,1417.0,0.0,1568.0,5.0,1500.0,,,,,,,,,,,,,,,,
22.100222999999996,-9.496609687805176,0.0,0.0,0.0,0.0,3.140358465678055e-05,0.0021983543410897255,1490.0,0.0,0.0,1020.0,0.0,-0.05305800926062762,0.0,5.0,2.1629154682159424,0.0,1500.0,0.0,25.979969,0.0,0.0,0.0,1603.0,1500.0,-5.278071281425981e-06,0.0,0.008028514559173916,0.0,0.0,1.0,0.558694064617157,-1.3198418973476663e-06,0.0,26.019603999999998,1417.0,0.0,1568.0,5.0,1501.0,,,,,,,,,,,,,,,,
22.200180999999997,-9.56451416015625,0.0,0.0,0.0,0.0,0.00012506851576442497,0.10081703960895538,1491.0,0.0,0.0,1020.0,0.0,-0.05305800926062762,0.0,5.0,2.179212808609009,0.0,1500.0,0.0,26.099939,0.0,0.0,0.0,1602.0,1500.0,-8.50446497526107e-06,0.0,0.008028514559173916,0.0,0.0,1.0,0.6656211614608765,-1.1904677464902254e-06,0.0,26.119562,1418.0,0.0,1568.0,5.0,1500.0,,,,,,,,,,,,,,,,
22.300244999999997,-9.608784675598145,0.0,0.0,0.0,0.0,4.1226583284419445e-06,0.1873939335346222,1491.0,0.0,0.0,1020.0,0.0,-0.05305800926062762,0.0,5.0,2.156924247741699,0.0,1500.0,0.0,26.179962999999997,0.0,0.0,0.0,1602.0,1500.0,7.943764032514617e-06,0.0,0.008028514559173916,0.0,0.0,1.0,0.6736406683921814,7.980339524284628e-06,0.0,26.219625999999998,1418.0,0.0,1568.0,5.0,1500.0,,,,,,,,,,,,,,,,
22.400226999999997,-9.240447998046875,0.0,0.0,0.0,0.0,-0.00016517403292336903,0.14719820022583008,1491.0,0.0,0.0,1019.0,0.0,-0.05305800926062762,0.0,5.0,1.9542652368545532,0.0,1500.0,0.0,26.299946,0.0,0.0,0.0,1614.0,1500.0,-2.6186054817783582e-05,0.0,0.008028514559173916,0.0,0.0,1.0,0.4918646216392517,-0.0027937288043041776,0.0,26.319608,1418.0,0.0,1568.0,5.0,1500.0,,,,,,,,,,,,,,,,
22.500218999999998,-9.74538516998291,0.0,0.0,0.0,0.0,-0.0005583280164759781,0.0560605451464653,1490.0,0.0,0.0,1019.0,0.0,-0.05305800926062762,0.0,5.0,1.6859629154205322,0.0,1500.0,0.0,26.379803,0.0,0.0,0.0,1649.0,1500.0,-0.00013510007825418908,0.0,0.008028514559173916,0.0,0.0,1.0,0.5159232020378113,-0.017403328080882585,0.0,26.4196,1417.0,0.0,1569.0,5.0,1500.0,,,,,,,,,,,,,,,,
22.600241999999998,-8.963739395141602,0.0,0.0,0.0,0.0,-0.0008093161899979911,0.17014151811599731,1491.0,0.0,0.0,1019.0,0.0,-0.05305800926062762,0.0,5.0,0.31096622347831726,0.0,1500.0,0.0,26.499947,0.0,0.0,0.0,1847.0,1500.0,-0.0002747749289072811,0.0,0.008028514559173916,0.0,0.0,1.0,0.5987917184829712,-0.02668140577139306,0.0,26.519623,1418.0,0.0,1568.0,5.0,1500.0,,,,,,,,,,,,,,,,
22.700259999999997,-9.296441078186035,0.0,0.0,0.0,0.0,-1.10662336514631e-05,0.1964079588651657,1491.0,0.0,0.0,1020.0,0.0,-0.05305800926062762,0.0,5.0,-0.5655505657196045,0.0,1500.0,0.0,26.580645,0.0,0.0,0.0,2113.0,1500.0,9.555063657548112e-06,0.0,0.008028514559173916,0.0,0.0,1.0,0.6415625214576721,-0.0020898796451456416,0.0,26.619640999999998,1417.0,0.0,1568.0,5.0,1500.0,,,,,,,,,,,,,,,,
22.800186999999998,-10.084735870361328,0.0,0.0,0.0,0.0,2.4468109480686842e-05,0.13076382875442505,1491.0,0.0,0.0,1019.0,0.0,-0.05305800926062762,0.0,5.0,-0.42478057742118835,0.0,1500.0,0.0,26.699949,0.0,0.0,0.0,2113.0,1500.0,3.5852116876638423e-06,0.0,0.008028514559173916,0.0,0.0,1.0,0.5399817824363708,-7.365358530079966e-05,0.0,26.719568,1417.0,0.0,1568.0,5.0,1500.0,,,,,,,,,,,,,,,,
22.900225,-7.618499279022217,0.0,0.0,0.0,0.0,0.0007106612859585796,0.1208748146891594,1491.0,0.0,0.0,1020.0,0.0,-0.05305800926062762,0.0,5.0,-1.2165827751159668,0.0,1500.0,0.0,26.77996,0.0,0.0,0.0,2112.0,1500.0,0.00010888986903345225,0.0,0.008028514559173916,0.0,0.0,1.0,0.5560208559036255,0.01431940314303034,0.0,26.819606,1418.0,0.0,1568.0,5.0,1500.0,,,,,,,,,,,,,,,,
23.000206,-7.402683258056641,0.0,0.0,0.0,0.0,0.0008698824939070214,0.3330550789833069,1491.0,0.0,0.0,1019.0,0.0,-0.05305800926062762,0.0,5.0,0.497504860162735,0.0,1500.0,0.0,26.89995,0.0,0.0,0.0,1743.0,1500.0,1.4945783694738997e-05,0.0,0.008028514559173916,0.0,0.0,1.0,0.4410742521286011,0.01765861391761,0.0,26.919587,1418.0,0.0,1568.0,5.0,1500.0,,,,,,,,,,,,,,,,
23.100237999999997,-9.675503730773926,0.0,0.0,0.0,0.0,0.0001745980374074908,0.11304467916488647,1491.0,0.0,0.0,1020.0,0.0,-0.05305800926062762,0.0,5.0,2.1659507751464844,0.0,1500.0,0.0,26.979944999999997,0.0,0.0,0.0,1642.0,1500.0,3.401573257433735e-05,0.0,0.008028514559173916,0.0,0.0,1.0,0.7271042466163635,0.0032607793801051983,0.0,27.019619,1418.0,0.0,1568.0,5.0,1500.0,,,,,,,,,,,,,,,,
23.200225999999997,-9.311488151550293,0.0,0.0,0.0,0.0,-2.197377523244703e-05,0.06896393746137619,1491.0,0.0,0.0,1020.0,0.0,-0.05305800926062762,0.0,5.0,2.2258429527282715,0.0,1500.0,0.0,27.099974,0.0,0.0,0.0,1597.0,1500.0,2.499354089082363e-05,0.0,0.008028514559173916,0.0,0.0,1.0,0.6121575832366943,0.002042902289747052,0.0,27.119607,1417.0,0.0,1568.0,5.0,1500.0,,,,,,,,,,,,,,,,
23.300210999999997,-8.486297607421875,0.0,0.0,0.0,0.0,0.0007327629222629854,0.07112887501716614,1491.0,0.0,0.0,1020.0,0.0,-0.05305800926062762,0.0,5.0,2.427804470062256,0.0,1501.0,0.0,27.179907999999998,0.0,0.0,0.0,1543.0,1500.0,0.0001572770710943223,0.0,0.008028514559173916,0.0,0.0,1.0,0.558694064617157,0.01935420905236602,0.0,27.219592,1417.0,0.0,1568.0,5.0,1500.0,,,,,,,,,,,,,,,,
23.400187,-8.345962524414062,0.0,0.0,0.0,0.0,0.0011518525415674982,0.07751861214637756,1491.0,0.0,0.0,1019.0,0.0,-0.05305800926062762,0.0,5.0,3.9338459968566895,0.0,1500.0,0.0,27.299853,0.0,0.0,0.0,1290.0,1501.0,0.00024017507955769103,0.0,0.008028514559173916,0.0,0.0,1.0,0.47582554817199707,0.03292727378346926,0.0,27.319568,1417.0,0.0,1569.0,5.0,1500.0,,,,,,,,,,,,,,,,
23.500232999999998,-8.635433197021484,0.0,0.0,0.0,0.0,0.00023151735156348938,0.13427135348320007,1491.0,0.0,0.0,1019.0,0.0,-0.05305800926062762,0.0,5.0,4.769296646118164,0.0,1500.0,0.0,27.379924,0.0,0.0,0.0,1109.0,1500.0,6.929599934540923e-05,0.0,0.008028514559173916,0.0,0.0,1.0,0.7324506044387817,0.001597513824640844,0.0,27.419614,1418.0,0.0,1570.0,5.0,1500.0,,,,,,,,,,,,,,,,
23.600233999999997,-8.720694541931152,0.0,0.0,0.0,0.0,0.00010965448754954921,0.10177721083164215,1492.0,0.0,0.0,1019.0,0.0,-0.05305800926062762,0.0,5.0,4.769968509674072,0.0,1500.0,0.0,27.499958,0.0,0.0,0.0,1093.0,1500.0,5.075119234007782e-05,0.0,0.008028514559173916,0.0,0.0,1.0,0.4972109794616699,-8.83507430202212e-05,0.0,27.519614999999998,1417.0,0.0,1570.0,5.0,1500.0,,,,,,,,,,,,,,,,
23.700241,-9.428481101989746,0.0,0.0,0.0,0.0,-0.00012957154015886255,-0.02649587020277977,1493.0,0.0,0.0,1019.0,0.0,-0.05305800926062762,0.0,5.0,5.277829170227051,0.0,1500.0,0.0,27.580643,0.0,0.0,0.0,1092.0,1500.0,-8.673010408553305e-06,0.0,0.008028514559173916,0.0,0.0,1.0,0.6068112254142761,-0.001085020527015676,0.0,27.619622,1418.0,0.0,1570.0,5.0,1500.0,,,,,,,,,,,,,,,,
23.800231999999998,-7.7048115730285645,0.0,0.0,0.0,0.0,-0.0008118132936314282,0.09633303433656693,1491.0,0.0,0.0,1020.0,0.0,-0.05305800926062762,0.0,5.0,3.042757749557495,0.0,1500.0,0.0,27.6999,0.0,0.0,0.0,1332.0,1500.0,-0.000323970880846306,0.0,0.008028514559173916,0.0,0.0,1.0,0.43305471539497375,-0.03334764751975446,0.0,27.719613,1418.0,0.0,1569.0,5.0,1500.0,,,,,,,,,,,,,,,,
23.900218,-9.642800331115723,0.0,0.0,0.0,0.0,0.00016085294677405633,0.19049964845180511,1490.0,0.0,0.0,1019.0,0.0,-0.05305800926062762,0.0,5.0,2.553231954574585,0.0,1500.0,0.0,27.779925,0.0,0.0,0.0,1556.0,1500.0,2.9184539081768175e-05,0.0,0.008028514559173916,0.0,0.0,1.0,0.4918646216392517,-0.005141960172359888,0.0,27.819599,1418.0,0.0,1569.0,5.0,1500.0,,,,,,,,,,,,,,,,
24.000185,-9.2191162109375,0.0,0.0,0.0,0.0,-0.00017184932811906508,0.26850396394729614,1490.0,0.0,0.0,1020.0,0.0,-0.05305800926062762,0.0,5.0,2.0143589973449707,0.0,1500.0,0.0,27.899964999999998,0.0,0.0,0.0,1605.0,1500.0,-1.7643958306764028e-05,0.0,0.008028514559173916,0.0,0.0,1.0,0.5266159176826477,-0.0014857172349117599,0.0,27.919566,1417.0,0.0,1568.0,5.0,1500.0,,,,,,,,,,,,,,,,
24.100199999999997,-8.75062084197998,0.0,0.0,0.0,0.0,-0.0002853259167157343,0.1908903568983078,1491.0,0.0,0.0,1020.0,0.0,-0.05305800926062762,0.0,5.0,1.6544612646102905,0.0,1500.0,0.0,27.97983,0.0,0.0,0.0,1622.0,1500.0,-3.469676767234152e-05,0.0,0.008028514559173916,0.0,0.0,1.0,0.5640404224395752,-0.0056879279614748465,0.0,28.019581,1418.0,0.0,1568.0,5.0,1500.0,,,,,,,,,,,,,,,,
24.200228999999997,-10.1404390335083,0.0,0.0,0.0,0.0,-0.000963931091535599,0.023522932082414627,1491.0,0.0,0.0,1020.0,0.0,-0.05305800926062762,0.0,5.0,1.4478821754455566,0.0,1500.0,0.0,28.099947,0.0,0.0,0.0,1763.0,1500.0,-0.00021692071257075883,0.0,0.008028514559173916,0.0,0.0,1.0,0.6656211614608765,-0.030301833873517474,0.0,28.119609999999998,1418.0,0.0,1568.0,5.0,1500.0,,,,,,,,,,,,,,,,
24.300610999999996,-10.44959831237793,0.0,0.0,0.0,0.0,-0.000788903671417198,0.14602558314800262,1491.0,0.0,0.0,1019.0,0.0,-0.05305800926062762,0.0,5.0,0.3089425563812256,0.0,1500.0,0.0,28.179952999999998,0.0,0.0,0.0,1912.0,1500.0,-0.00017938676970280924,0.0,0.008028514559173916,0.0,0.0,1.0,0.6148307919502258,-0.02306047624596965,0.0,28.219991999999998,1418.0,0.0,1568.0,5.0,1500.0,,,,,,,,,,,,,,,,
24.400239999999997,-9.850425720214844,0.0,0.0,0.0,0.0,-0.00012224767648736872,0.19612336158752441,1490.0,0.0,0.0,1019.0,0.0,-0.05305800926062762,0.0,5.0,-0.4095105826854706,0.0,1500.0,0.0,28.299971,0.0,0.0,0.0,2113.0,1500.0,3.8136567588735705e-05,0.0,0.008028514559173916,0.0,0.0,1.0,0.7164115309715271,-0.00021483548539521675,0.0,28.319620999999998,1418.0,0.0,1568.0,5.0,1500.0,,,,,,,,,,,,,,,,
24.500232999999998,-9.831696510314941,0.0,0.0,0.0,0.0,-0.0001012666191770364,0.10573115944862366,1490.0,0.0,0.0,1020.0,0.0,-0.05305800926062762,0.0,5.0,-0.4110640287399292,0.0,1500.0,0.0,28.379955,0.0,0.0,0.0,2113.0,1500.0,2.4848626664088226e-05,0.0,0.008028514559173916,0.0,0.0,1.0,0.6175039410591125,-1.5012010199370487e-05,0.0,28.419614,1417.0,0.0,1567.0,5.0,1500.0,,,,,,,,,,,,,,,,
24.600209999999997,-7.784531593322754,0.0,0.0,0.0,0.0,0.0014535643761240692,0.07577060908079147,1491.0,0.0,0.0,1020.0,0.0,-0.05305800926062762,0.0,5.0,-0.4405738413333893,0.0,1500.0,0.0,28.499927999999997,0.0,0.0,0.0,1912.0,1500.0,0.0003379807596520878,0.0,0.008028514559173916,0.0,0.0,1.0,0.6415625214576721,0.045208682499343456,0.0,28.519591,1418.0,0.0,1568.0,5.0,1500.0,,,,,,,,,,,,,,,,
24.700235999999997,-9.52608871459961,0.0,0.0,0.0,0.0,0.0005777014080904225,0.20512261986732483,1490.0,0.0,0.0,1019.0,0.0,-0.05305800926062762,0.0,5.0,1.8190813064575195,0.0,1500.0,0.0,28.580581,0.0,0.0,0.0,1676.0,1500.0,2.4779316856421612e-05,0.0,0.008028514559173916,0.0,0.0,1.0,0.628196656703949,0.009769649374063263,0.0,28.619616999999998,1417.0,0.0,1569.0,5.0,1500.0,,,,,,,,,,,,,,,,
24.800234999999997,-9.854087829589844,0.0,0.0,0.0,0.0,0.00024432450039772437,0.20731596648693085,1491.0,0.0,0.0,1019.0,0.0,-0.05305800926062762,0.0,5.0,2.27791166305542,0.0,1500.0,0.0,28.699923,0.0,0.0,0.0,1595.0,1500.0,2.7542452142573434e-05,0.0,0.008028514559173916,0.0,0.0,1.0,0.6041380763053894,0.002666006563271285,0.0,28.719616,1418.0,0.0,1568.0,5.0,1500.0,,,,,,,,,,,,,,,,
24.900240999999998,-10.732288360595703,0.0,0.0,0.0,0.0,0.0002187633066555318,-0.01147518865764141,1490.0,0.0,0.0,1019.0,0.0,-0.05305800926062762,0.0,5.0,3.4326910972595215,0.0,1500.0,0.0,28.77995,0.0,0.0,0.0,1564.0,1500.0,8.58293305647003e-05,0.0,0.008028514559173916,0.0,0.0,1.0,0.523942768573761,0.013136084729005175,0.0,28.819622,1418.0,0.0,1569.0,5.0,1500.0,,,,,,,,,,,,,,,,
25.000215999999998,-7.464086055755615,0.0,0.0,0.0,0.0,0.0014502317837209175,-0.06353612244129181,1491.0,0.0,0.0,1019.0,0.0,-0.05305800926062762,0.0,5.0,3.794694423675537,0.0,1500.0,0.0,28.899853,0.0,0.0,0.0,1349.0,1500.0,0.0002909903355186567,0.0,0.008028514559173916,0.0,0.0,1.0,0.697699248790741,0.04553531088466327,0.0,28.919597,1418.0,0.0,1568.0,5.0,1500.0,,,,,,,,,,,,,,,,
25.100212,-8.694021224975586,0.0,0.0,0.0,0.0,0.00035580989494205775,-0.07661968469619751,1491.0,0.0,0.0,1020.0,0.0,-0.05305800926062762,0.0,5.0,4.8675994873046875,0.0,1500.0,0.0,28.979962999999998,0.0,0.0,0.0,1092.0,1500.0,8.216268081814775e-05,0.0,0.008028514559173916,0.0,0.0,1.0,0.5774062871932983,0.0008228264010064765,0.0,29.019593,1418.0,0.0,1568.0,5.0,1500.0,,,,,,,,,,,,,,,,
25.200184999999998,-8.816018104553223,0.0,0.0,0.0,0.0,0.0002235384663220037,0.18419265747070312,1492.0,0.0,0.0,1019.0,0.0,-0.05305800926062762,0.0,5.0,4.853653430938721,0.0,1500.0,0.0,29.09996,0.0,0.0,0.0,1092.0,1500.0,6.79901377129354e-05,0.0,0.008028514559173916,0.0,0.0,1.0,0.523942768573761,-4.483911369731944e-05,0.0,29.119566,1418.0,0.0,1569.0,5.0,1500.0,,,,,,,,,,,,,,,,
25.300230999999997,-8.737807273864746,0.0,0.0,0.0,0.0,-0.00016230733116452776,0.09394576400518417,1491.0,0.0,0.0,1019.0,0.0,-0.05305800926062762,0.0,5.0,4.8725056648254395,0.0,1500.0,0.0,29.179948,0.0,0.0,0.0,1093.0,1501.0,-3.490867948344603e-05,0.0,0.008028514559173916,0.0,0.0,1.0,0.558694064617157,5.9306957991900525e-06,0.0,29.219611999999998,1417.0,0.0,1570.0,5.0,1500.0,,,,,,,,,,,,,,,,
25.400208999999997,-10.515535354614258,0.0,0.0,0.0,0.0,-0.00106827226062125,-0.11102002114057541,1491.0,0.0,0.0,1020.0,0.0,-0.05305800926062762,0.0,5.0,5.467698097229004,0.0,1501.0,0.0,29.299947999999997,0.0,0.0,0.0,1173.0,1500.0,-0.00019700612254021225,0.0,0.008028514559173916,0.0,0.0,1.0,0.5480013489723206,-0.028364415389403853,0.0,29.319589999999998,1417.0,0.0,1568.0,5.0,1500.0,,,,,,,,,,,,,,,,
25.500244,-8.848563194274902,0.0,0.0,0.0,0.0,-0.0008023603071146915,0.014847968704998493,1491.0,0.0,0.0,1019.0,0.0,-0.05305800926062762,0.0,5.0,2.9805703163146973,0.0,1500.0,0.0,29.379962,0.0,0.0,0.0,1364.0,1500.0,-0.00018342401723545347,0.0,0.008028514559173916,0.0,0.0,1.0,0.6362161636352539,-0.022866546103746842,0.0,29.419625,1417.0,0.0,1569.0,5.0,1500.0,,,,,,,,,,,,,,,,
25.600216999999997,-9.287540435791016,0.0,0.0,0.0,0.0,0.0001180880802393618,0.14515957236289978,1490.0,0.0,0.0,1020.0,0.0,-0.05305800926062762,0.0,5.0,2.2169837951660156,0.0,1500.0,0.0,29.499917999999997,0.0,0.0,0.0,1583.0,1500.0,-5.175553741317669e-06,0.0,0.008028514559173916,0.0,0.0,1.0,0.6682943105697632,-0.003911069482917231,0.0,29.519598,1418.0,0.0,1568.0,5.0,1500.0,,,,,,,,,,,,,,,,
25.700219999999998,-9.829648971557617,0.0,0.0,0.0,0.0,1.3555306474194215e-05,0.2913859486579895,1491.0,0.0,0.0,1020.0,0.0,-0.05305800926062762,0.0,5.0,2.135067939758301,0.0,1501.0,0.0,29.580631999999998,0.0,0.0,0.0,1606.0,1500.0,-7.326339965117579e-06,0.0,0.008028514559173916,0.0,0.0,1.0,0.5987917184829712,0.00020240560687897943,0.0,29.619601,1417.0,0.0,1568.0,5.0,1500.0,,,,,,,,,,,,,,,,
25.800199999999997,-9.58713436126709,0.0,0.0,0.0,0.0,-0.00022269875134450434,0.16233167052268982,1491.0,0.0,0.0,1019.0,0.0,-0.05305800926062762,0.0,5.0,2.185556650161743,0.0,1500.0,0.0,29.699911,0.0,0.0,0.0,1602.0,1500.0,1.1816797994845777e-05,0.0,0.008028514559173916,0.0,0.0,1.0,0.7057188153266907,-6.773673896738434e-07,0.0,29.719580999999998,1418.0,0.0,1568.0,5.0,1500.0,,,,,,,,,,,,,,,,
25.900214,-9.528751373291016,0.0,0.0,0.0,0.0,-9.895039723677804e-05,-0.024816887453198433,1491.0,0.0,0.0,1020.0,0.0,-0.05305800926062762,0.0,5.0,2.172502040863037,0.0,1500.0,0.0,29.779937999999998,0.0,0.0,0.0,1602.0,1500.0,6.179386285131139e-06,0.0,0.008028514559173916,0.0,0.0,1.0,0.697699248790741,-2.9831931127610534e-05,0.0,29.819595,1418.0,0.0,1568.0,5.0,1500.0,,,,,,,,,,,,,,,,
26.000225999999998,-9.561620712280273,0.0,0.0,0.0,0.0,0.0001465376756919048,-0.0034210914745926857,1490.0,0.0,0.0,1020.0,0.0,-0.05305800926062762,0.0,5.0,2.1633548736572266,0.0,1500.0,0.0,29.899943999999998,0.0,0.0,0.0,1603.0,1500.0,-7.4178023145740944e-06,0.0,0.008028514559173916,0.0,0.0,1.0,0.5399817824363708,-9.830946641245244e-06,0.0,29.919607,1418.0,0.0,1568.0,5.0,1500.0,,,,,,,,,,,,,,,,
26.100174999999997,-9.60610580444336,0.0,0.0,0.0,0.0,0.0001323746293632237,0.18220022320747375,1491.0,0.0,0.0,1019.0,0.0,-0.05305800926062762,0.0,5.0,2.1597158908843994,0.0,1500.0,0.0,29.979969999999998,0.0,0.0,0.0,1602.0,1500.0,-8.696012763519116e-06,0.0,0.008028514559173916,0.0,0.0,1.0,0.6682943105697632,2.2996696317406607e-06,0.0,30.019555999999998,1418.0,0.0,1568.0,5.0,1500.0,,,,,,,,,,,,,,,,
26.200167999999998,-9.622732162475586,0.0,0.0,0.0,0.0,-7.060802555212265e-05,0.17552760243415833,1491.0,0.0,0.0,1019.0,0.0,-0.05305800926062762,0.0,5.0,2.145108222961426,0.0,1500.0,0.0,30.099801,0.0,0.0,0.0,1602.0,1500.0,5.823887032715891e-06,0.0,0.008028514559173916,0.0,0.0,1.0,0.523942768573761,-4.518771082096348e-06,0.0,30.119549,1418.0,0.0,1568.0,5.0,1500.0,,,,,,,,,,,,,,,,
26.300167,-9.552103996276855,0.0,0.0,0.0,0.0,-0.00011460435214397628,0.05709238350391388,1491.0,0.0,0.0,1020.0,0.0,-0.05305800926062762,0.0,5.0,2.1550230979919434,0.0,1500.0,0.0,30.179758,0.0,0.0,0.0,1602.0,1500.0,-1.5405582656735162e-06,0.0,0.008028514559173916,0.0,0.0,1.0,0.628196656703949,-2.9841049983637965e-06,0.0,30.219548,1418.0,0.0,1568.0,5.0,1500.0,,,,,,,,,,,,,,,,
26.400014,-9.513017654418945,0.0,0.0,0.0,0.0,3.3884616509652367e-05,0.01905246078968048,1491.0,0.0,0.0,1020.0,0.0,-0.05305800926062762,0.0,5.0,2.141347885131836,0.0,1500.0,0.0,30.29976,0.0,0.0,0.0,1602.0,1500.0,4.184082347316341e-06,0.0,0.008028514559173916,0.0,0.0,1.0,0.5987917184829712,-1.152180259599222e-05,0.0,30.319395,1418.0,0.0,1568.0,5.0,1500.0,,,,,,,,,,,,,,,,
26.500133999999996,-9.567484855651855,0.0,0.0,0.0,0.0,0.00014210860993369684,0.09136530011892319,1490.0,0.0,0.0,1019.0,0.0,-0.05305800926062762,0.0,5.0,2.1674561500549316,0.0,1500.0,0.0,30.379793,0.0,0.0,0.0,1603.0,1500.0,2.5751358361725005e-06,0.0,0.008028514559173916,0.0,0.0,1.0,0.6763138771057129,0.00027291962368986385,0.0,30.419514999999997,1417.0,0.0,1569.0,5.0,1501.0,,,,,,,,,,,,,,,,
26.60017,-9.613044738769531,0.0,0.0,0.0,0.0,1.2399016786277951e-06,0.173285573720932,1490.0,0.0,0.0,1019.0,0.0,-0.05305800926062762,0.0,5.0,2.1815457344055176,0.0,1500.0,0.0,30.499764,0.0,0.0,0.0,1603.0,1500.0,3.4838748951511063e-06,0.0,0.008028514559173916,0.0,0.0,1.0,0.7083919644355774,9.97084326215183e-07,0.0,30.519551,1417.0,0.0,1569.0,5.0,1500.0,,,,,,,,,,,,,,,,
26.700166999999997,-9.576433181762695,0.0,0.0,0.0,0.0,-0.00010447710668450546,0.12399136275053024,1491.0,0.0,0.0,1020.0,0.0,-0.05305800926062762,0.0,5.0,2.1533432006835938,0.0,1500.0,0.0,30.580533,0.0,0.0,0.0,1602.0,1500.0,8.564597003810948e-06,0.0,0.008028514559173916,0.0,0.0,1.0,0.5827526450157166,-1.611926825762098e-07,0.0,30.619547999999998,1418.0,0.0,1568.0,5.0,1500.0,,,,,,,,,,,,,,,,
26.800136,-9.52823257446289,0.0,0.0,0.0,0.0,-2.9979746808536485e-05,0.04229391738772392,1492.0,0.0,0.0,1067.0,0.0,-0.05305800926062762,0.0,5.0,2.18247652053833,0.0,1500.0,0.0,30.699803,0.0,0.0,0.0,1602.0,1500.0,-2.4834635478124566e-05,0.0,0.008028514559173916,0.0,0.0,1.0,0.5480013489723206,-9.052987886934125e-07,0.0,30.719517,1418.0,0.0,1570.0,5.0,1500.0,,,,,,,,,,,,,,,,
26.900178999999998,-9.546417236328125,0.0,0.0,0.0,0.0,6.622201834938113e-05,0.06400885432958603,1492.0,0.0,0.0,1068.0,0.0,-0.05305800926062762,0.0,5.0,2.1815648078918457,0.0,1500.0,0.0,30.779771,0.0,0.0,0.0,1602.0,1500.0,-1.343638037758779e-05,0.0,0.008028514559173916,0.0,0.0,1.0,0.6255235075950623,-7.60079304798376e-06,0.0,30.81956,1418.0,0.0,1569.0,5.0,1500.0,,,,,,,,,,,,,,,,
26.999995999999996,-9.59130859375,0.0,0.0,0.0,0.0,2.5346898593717286e-05,0.1532859057188034,1492.0,0.0,0.0,1067.0,0.0,-0.05305800926062762,0.0,5.0,2.1599113941192627,0.0,1500.0,0.0,30.899790999999997,0.0,0.0,0.0,1602.0,1500.0,-1.5122387368451195e-06,0.0,0.008028514559173916,0.0,0.0,1.0,0.724431037902832,-1.7282656145967686e-05,0.0,30.919376999999997,1418.0,0.0,1570.0,5.0,1500.0,,,,,,,,,,,,,,,,
27.100028999999996,-9.594466209411621,0.0,0.0,0.0,0.0,-6.615816197522112e-05,0.13738030195236206,1492.0,0.0,0.0,1067.0,0.0,-0.05305800926062762,0.0,5.0,2.1579995155334473,0.0,1500.0,0.0,30.979764999999997,0.0,0.0,0.0,1602.0,1500.0,-8.98283105985877e-06,0.0,0.008028514559173916,0.0,0.0,1.0,0.868782639503479,-8.829680807520156e-06,0.0,31.019409999999997,1418.0,0.0,1570.0,5.0,1500.0,,,,,,,,,,,,,,,,
27.200160999999998,-9.54578685760498,0.0,0.0,0.0,0.0,-4.876869858665227e-05,0.06324440240859985,1492.0,0.0,0.0,1068.0,0.0,-0.05305800926062762,0.0,5.0,2.1598122119903564,0.0,1500.0,0.0,31.09977,0.0,0.0,0.0,1602.0,1500.0,3.943766559421393e-06,0.0,0.008028514559173916,0.0,0.0,1.0,0.759182333946228,8.860104931949916e-07,0.0,31.119542,1418.0,0.0,1569.0,5.0,1500.0,,,,,,,,,,,,,,,,
27.300119,-9.534945487976074,0.0,0.0,0.0,0.0,3.212172098273948e-05,0.04654537886381149,1492.0,0.0,0.0,1068.0,0.0,-0.05305800926062762,0.0,5.0,2.179598331451416,0.0,1500.0,0.0,31.179774,0.0,0.0,0.0,1602.0,1500.0,-1.1150593228870175e-05,0.0,0.008028514559173916,0.0,0.0,1.0,0.6602748036384583,-3.446659122742583e-06,0.0,31.2195,1418.0,0.0,1569.0,5.0,1500.0,,,,,,,,,,,,,,,,
27.400114999999996,-9.56683349609375,0.0,0.0,0.0,0.0,6.610979627805601e-05,0.10224876552820206,1492.0,0.0,0.0,1067.0,0.0,-0.05305800926062762,0.0,5.0,2.1614201068878174,0.0,1500.0,0.0,31.299787,0.0,0.0,0.0,1602.0,1500.0,2.0235258752765348e-07,0.0,0.008028514559173916,0.0,0.0,1.0,0.6522552371025085,-4.006897570033768e-06,0.0,31.319495999999997,1418.0,0.0,1570.0,5.0,1500.0,,,,,,,,,,,,,,,,
27.500172999999997,-9.595069885253906,0.0,0.0,0.0,0.0,-2.792279458853757e-05,0.12942060828208923,1492.0,0.0,0.0,1067.0,0.0,-0.05305800926062762,0.0,5.0,2.170783519744873,0.0,1500.0,0.0,31.379772,0.0,0.0,0.0,1602.0,1500.0,-1.781900255044034e-07,0.0,0.008028514559173916,0.0,0.0,1.0,0.7538359761238098,-1.2489724056663345e-05,0.0,31.419553999999998,1418.0,0.0,1570.0,5.0,1500.0,,,,,,,,,,,,,,,,
27.600052999999996,-9.561746597290039,0.0,0.0,0.0,0.0,-4.631753058090417e-05,0.08583306521177292,1491.0,0.0,0.0,1067.0,0.0,-0.05305800926062762,0.0,5.0,2.1726181507110596,0.0,1500.0,0.0,31.499789,0.0,0.0,0.0,1603.0,1501.0,4.0756206865956745e-06,0.0,0.008028514559173916,0.0,0.0,1.0,0.5667135715484619,5.995181024941082e-06,0.0,31.519433999999997,1417.0,0.0,1570.0,5.0,1500.0,,,,,,,,,,,,,,,,
27.700181999999998,-9.53956127166748,0.0,0.0,0.0,0.0,5.257156632469125e-06,0.06420762091875076,1492.0,0.0,0.0,1067.0,0.0,-0.05305800926062762,0.0,5.0,2.1529717445373535,0.0,1501.0,0.0,31.580551,0.0,0.0,0.0,1603.0,1500.0,-8.275554868807742e-06,0.0,0.008028514559173916,0.0,0.0,1.0,0.7351237535476685,-1.2212950115219327e-05,0.0,31.619563,1417.0,0.0,1569.0,5.0,1500.0,,,,,,,,,,,,,,,,
27.800179999999997,-9.552764892578125,0.0,0.0,0.0,0.0,4.681209035590709e-05,0.0903359204530716,1492.0,0.0,0.0,1067.0,0.0,-0.05305800926062762,0.0,5.0,2.149362564086914,0.0,1500.0,0.0,31.699869999999997,0.0,0.0,0.0,1602.0,1500.0,5.6420783167959665e-06,0.0,0.008028514559173916,0.0,0.0,1.0,0.7912604808807373,3.2883693547352103e-06,0.0,31.719561,1418.0,0.0,1570.0,5.0,1500.0,,,,,,,,,,,,,,,,
27.900171999999998,-9.590792655944824,0.0,0.0,0.0,0.0,3.199954497298335e-05,0.10236275941133499,1492.0,0.0,0.0,1067.0,0.0,-0.05305800926062762,0.0,5.0,2.1724817752838135,0.0,1500.0,0.0,31.779901,0.0,0.0,0.0,1602.0,1500.0,-3.389703353480781e-06,0.0,0.008028514559173916,0.0,0.0,1.0,0.8019531965255737,-1.0440857760777214e-06,0.0,31.819553,1418.0,0.0,1570.0,5.0,1500.0,,,,,,,,,,,,,,,,
28.000159999999997,-9.57099723815918,0.0,0.0,0.0,0.0,-3.6969605964226955e-05,0.10498136281967163,1491.0,0.0,0.0,1067.0,0.0,-0.05305800926062762,0.0,5.0,2.155066967010498,0.0,1500.0,0.0,31.899755,0.0,0.0,0.0,1603.0,1501.0,-1.0159290476814096e-05,0.0,0.008028514559173916,0.0,0.0,1.0,0.7698750495910645,-3.8091608255681562e-06,0.0,31.919541,1417.0,0.0,1570.0,5.0,1500.0,,,,,,,,,,,,,,,,
28.100113999999998,-9.554518699645996,0.0,0.0,0.0,0.0,-1.052734136316639e-05,0.08627809584140778,1492.0,0.0,0.0,1067.0,0.0,-0.05305800926062762,0.0,5.0,2.1647965908050537,0.0,1500.0,0.0,31.979778,0.0,0.0,0.0,1602.0,1500.0,-3.412578338061739e-07,0.0,0.008028514559173916,0.0,0.0,1.0,0.5827526450157166,-4.694713394926877e-06,0.0,32.019495,1418.0,0.0,1570.0,5.0,1500.0,,,,,,,,,,,,,,,,
28.200001,-9.55662727355957,0.0,0.0,0.0,0.0,2.3371497961145517e-05,0.06886065006256104,1492.0,0.0,0.0,1067.0,0.0,-0.05305800926062762,0.0,5.0,2.169689178466797,0.0,1500.0,0.0,32.099792,0.0,0.0,0.0,1603.0,1500.0,-1.9885477960769152e-05,0.0,0.008028514559173916,0.0,0.0,1.0,0.6068112254142761,-1.4640845532523087e-05,0.0,32.119382,1417.0,0.0,1569.0,5.0,1500.0,,,,,,,,,,,,,,,,
28.300159,-9.563177108764648,0.0,0.0,0.0,0.0,2.722640088253176e-05,0.11201346665620804,1492.0,0.0,0.0,1067.0,0.0,-0.05305800926062762,0.0,5.0,2.159266948699951,0.0,1500.0,0.0,32.179774,0.0,0.0,0.0,1603.0,1500.0,2.2666196201543832e-06,0.0,0.008028514559173916,0.0,0.0,1.0,0.6950260996818542,1.3554271256470065e-06,0.0,32.21954,1417.0,0.0,1569.0,5.0,1500.0,,,,,,,,,,,,,,,,
28.400149,-9.563212394714355,0.0,0.0,0.0,0.0,-2.078330735896739e-05,0.11950922757387161,1492.0,0.0,0.0,1067.0,0.0,-0.05305800926062762,0.0,5.0,2.1529126167297363,0.0,1500.0,0.0,32.299771,0.0,0.0,0.0,1602.0,1500.0,6.915658223653974e-06,0.0,0.008028514559173916,0.0,0.0,1.0,0.5132500529289246,-1.2018326643291155e-06,0.0,32.31953,1418.0,0.0,1570.0,5.0,1500.0,,,,,,,,,,,,,,,,
28.50011,-9.556714057922363,0.0,0.0,0.0,0.0,-2.484919964033594e-05,0.09122918546199799,1492.0,0.0,0.0,1067.0,0.0,-0.05305800926062762,0.0,5.0,2.1584208011627197,0.0,1500.0,0.0,32.379785,0.0,0.0,0.0,1602.0,1500.0,-9.190785880741929e-06,0.0,0.008028514559173916,0.0,0.0,1.0,0.6522552371025085,-8.607863821920607e-06,0.0,32.419491,1418.0,0.0,1570.0,5.0,1500.0,,,,,,,,,,,,,,,,
28.60017,-9.547520637512207,0.0,0.0,0.0,0.0,-1.2808815951296165e-05,0.08163819462060928,1492.0,0.0,0.0,1067.0,0.0,-0.05305800926062762,0.0,5.0,2.1587119102478027,0.0,1500.0,0.0,32.499750999999996,0.0,0.0,0.0,1603.0,1500.0,-1.3791621587508501e-05,0.0,0.008028514559173916,0.0,0.0,1.0,0.6816602349281311,-1.5505037974051507e-05,0.0,32.519551,1417.0,0.0,1569.0,5.0,1500.0,,,,,,,,,,,,,,,,
28.700123999999995,-9.563472747802734,0.0,0.0,0.0,0.0,2.216881268987333e-05,0.08503194153308868,1492.0,0.0,0.0,1067.0,0.0,-0.05305800926062762,0.0,5.0,2.162869691848755,0.0,1500.0,0.0,32.580583,0.0,0.0,0.0,1602.0,1500.0,4.746098900418803e-06,0.0,0.008028514559173916,0.0,0.0,1.0,0.6388893723487854,-9.958325153420768e-06,0.0,32.619505,1418.0,0.0,1570.0,5.0,1500.0,,,,,,,,,,,,,,,,
28.800003999999994,-9.567888259887695,0.0,0.0,0.0,0.0,1.6689702939150056e-05,0.11307153105735779,1492.0,0.0,0.0,1068.0,0.0,-0.05305800926062762,0.0,5.0,2.1652839183807373,0.0,1500.0,0.0,32.699787,0.0,0.0,0.0,1602.0,1500.0,2.5122143580975207e-06,0.0,0.008028514559173916,0.0,0.0,1.0,0.5800794959068298,-9.589997938097945e-06,0.0,32.719384999999996,1418.0,0.0,1569.0,5.0,1500.0,,,,,,,,,,,,,,,,
28.900172999999995,-9.562189102172852,0.0,0.0,0.0,0.0,7.380133697905965e-06,0.10434234887361526,1492.0,0.0,0.0,1068.0,0.0,-0.05305800926062762,0.0,5.0,2.160632610321045,0.0,1500.0,0.0,32.779778,0.0,0.0,0.0,1602.0,1500.0,4.37013352566614e-06,0.0,0.008028514559173916,0.0,0.0,1.0,0.4597865045070648,-1.4386290675323271e-05,0.0,32.819554,1418.0,0.0,1569.0,5.0,1500.0,,,,,,,,,,,,,,,,
29.000147999999996,-9.549904823303223,0.0,0.0,0.0,0.0,-3.302654902166554e-06,0.08905383199453354,1492.0,0.0,0.0,1067.0,0.0,-0.05305800926062762,0.0,5.0,2.1593852043151855,0.0,1500.0,0.0,32.899786999999996,0.0,0.0,0.0,1602.0,1500.0,-2.7484611511056744e-06,0.0,0.008028514559173916,0.0,0.0,1.0,0.5506744980812073,-1.5923669252994464e-05,0.0,32.919529,1418.0,0.0,1570.0,5.0,1500.0,,,,,,,,,,,,,,,,
29.100167,-9.555442810058594,0.0,0.0,0.0,0.0,7.316653212419098e-06,0.08125512301921844,1492.0,0.0,0.0,1067.0,0.0,-0.05305800926062762,0.0,5.0,2.162994623184204,0.0,1500.0,0.0,32.979772,0.0,0.0,0.0,1602.0,1500.0,-8.977696623766675e-06,0.0,0.008028514559173916,0.0,0.0,1.0,0.6522552371025085,1.7827831489629668e-07,0.0,33.019548,1418.0,0.0,1570.0,5.0,1500.0,,,,,,,,,,,,,,,,
29.200148999999996,-9.56044864654541,0.0,0.0,0.0,0.0,1.9809255865178003e-05,0.09956925362348557,1492.0,0.0,0.0,1068.0,0.0,-0.05305800926062762,0.0,5.0,2.1661200523376465,0.0,1500.0,0.0,33.100204999999995,0.0,0.0,0.0,1602.0,1500.0,-4.7757560087722795e-06,0.0,0.008028514559173916,0.0,0.0,1.0,0.7484896183013916,-5.967950938317723e-06,0.0,33.11953,1418.0,0.0,1569.0,5.0,1500.0,,,,,,,,,,,,,,,,
29.300143,-9.565634727478027,0.0,0.0,0.0,0.0,-9.652170940551468e-07,0.11182157695293427,1492.0,0.0,0.0,1067.0,0.0,-0.05305800926062762,0.0,5.0,2.156858444213867,0.0,1500.0,0.0,33.179772,0.0,0.0,0.0,1603.0,1500.0,6.738587736846343e-06,0.0,0.008028514559173916,0.0,0.0,1.0,0.5961185097694397,-1.6311552838474154e-05,0.0,33.219524,1417.0,0.0,1569.0,5.0,1501.0,,,,,,,,,,,,,,,,
29.400006999999995,-9.617902755737305,0.0,0.0,0.0,0.0,-4.2021021455323144e-05,0.0810733512043953,1492.0,0.0,0.0,1067.0,0.0,-0.05305800926062762,0.0,5.0,2.1771631240844727,0.0,1500.0,0.0,33.299766999999996,0.0,0.0,0.0,1603.0,1500.0,-1.4325497285891725e-05,0.0,0.008028514559173916,0.0,0.0,1.0,0.6308698654174805,-0.0005727530389233654,0.0,33.319388,1418.0,0.0,1570.0,5.0,1500.0,,,,,,,,,,,,,,,,
29.500116,-9.537604331970215,0.0,0.0,0.0,0.0,-2.0632704006368167e-05,0.08718397468328476,1492.0,0.0,0.0,1067.0,0.0,-0.05305800926062762,0.0,5.0,2.1140875816345215,0.0,1500.0,0.0,33.379778,0.0,0.0,0.0,1608.0,1500.0,-1.7260148795747796e-06,0.0,0.008028514559173916,0.0,0.0,1.0,0.759182333946228,-0.0008474348937315144,0.0,33.419497,1418.0,0.0,1570.0,5.0,1500.0,,,,,,,,,,,,,,,,
29.600113999999998,-9.543961524963379,0.0,0.0,0.0,0.0,-4.947499543532245e-06,0.0987761914730072,1492.0,0.0,0.0,1067.0,0.0,-0.05305800926062762,0.0,5.0,2.043989658355713,0.0,1500.0,0.0,33.499783,0.0,0.0,0.0,1621.0,1500.0,6.416664486180942e-06,0.0,0.008028514559173916,0.0,0.0,1.0,0.65492844581604,-0.001182113229602174,0.0,33.519495,1418.0,0.0,1569.0,5.0,1500.0,,,,,,,,,,,,,,,,
29.700176999999996,-9.680923461914062,0.0,0.0,0.0,0.0,-6.343046994320087e-05,0.0956188440322876,1492.0,0.0,0.0,1067.0,0.0,-0.05305800926062762,0.0,5.0,2.0325241088867188,0.0,1500.0,0.0,33.580556,0.0,0.0,0.0,1626.0,1500.0,-1.5528823599738926e-05,0.0,0.008028514559173916,0.0,0.0,1.0,0.7859141230583191,-0.0015018121946012758,0.0,33.619558,1418.0,0.0,1569.0,5.0,1500.0,,,,,,,,,,,,,,,,
29.800064,-9.680843353271484,0.0,0.0,0.0,0.0,-4.170075617848091e-05,0.10290273278951645,1491.0,0.0,0.0,1067.0,0.0,-0.05305800926062762,0.0,5.0,1.9218953847885132,0.0,1500.0,0.0,33.699795,0.0,0.0,0.0,1644.0,1500.0,-1.843294659986479e-05,0.0,0.008028514559173916,0.0,0.0,1.0,0.5266159176826477,-0.0011430183368890008,0.0,33.719445,1418.0,0.0,1570.0,5.0,1500.0,,,,,,,,,,,,,,,,
29.900133999999994,-9.55124282836914,0.0,0.0,0.0,0.0,6.103019929562728e-06,0.09755900502204895,1492.0,0.0,0.0,1068.0,0.0,-0.05305800926062762,0.0,5.0,1.8049015998840332,0.0,1500.0,0.0,33.779786,0.0,0.0,0.0,1657.0,1500.0,5.9011265675128645e-06,0.0,0.008028514559173916,0.0,0.0,1.0,0.4784987270832062,-0.0004068865093452072,0.0,33.819514999999996,1418.0,0.0,1569.0,5.0,1500.0,,,,,,,,,,,,,,,,
30.000011999999998,-9.612945556640625,0.0,0.0,0.0,0.0,8.668449964624257e-06,0.111803337931633,1492.0,0.0,0.0,1067.0,0.0,-0.05305800926062762,0.0,5.0,1.8313262462615967,0.0,1500.0,0.0,33.899789,0.0,0.0,0.0,1658.0,1500.0,-8.016684403274089e-06,0.0,0.008028514559173916,0.0,0.0,1.0,0.6816602349281311,-3.926984958813066e-05,0.0,33.919393,1418.0,0.0,1570.0,5.0,1500.0,,,,,,,,,,,,,,,,
30.10015,-9.42318344116211,0.0,0.0,0.0,0.0,5.3602021437759045e-05,0.11003540456295013,1492.0,0.0,0.0,1067.0,0.0,-0.05305800926062762,0.0,5.0,1.7451529502868652,0.0,1500.0,0.0,33.979765,0.0,0.0,0.0,1658.0,1500.0,1.0836072953235066e-05,0.0,0.008028514559173916,0.0,0.0,1.0,0.4918646216392517,0.0006273387386686076,0.0,34.019531,1418.0,0.0,1570.0,5.0,1500.0,,,,,,,,,,,,,,,,
30.200129999999994,-9.783761978149414,0.0,0.0,0.0,0.0,0.00014082273745131166,0.06328475475311279,1492.0,0.0,0.0,1067.0,0.0,-0.05305800926062762,0.0,5.0,2.097569704055786,0.0,1500.0,0.0,34.099793999999996,0.0,0.0,0.0,1624.0,1500.0,2.2061586890155043e-05,0.0,0.008028514559173916,0.0,0.0,1.0,0.7805677652359009,0.004345996458292146,0.0,34.119510999999996,1418.0,0.0,1570.0,5.0,1500.0,,,,,,,,,,,,,,,,
30.300154999999997,-9.574989318847656,0.0,0.0,0.0,0.0,3.605259608454499e-05,0.08737093210220337,1492.0,0.0,0.0,1068.0,0.0,-0.05305800926062762,0.0,5.0,2.137211799621582,0.0,1500.0,0.0,34.179767999999996,0.0,0.0,0.0,1608.0,1500.0,3.3943641190489463e-06,0.0,0.008028514559173916,0.0,0.0,1.0,0.5399817824363708,0.0013418599827432697,0.0,34.219536,1418.0,0.0,1569.0,5.0,1500.0,,,,,,,,,,,,,,,,
30.400423999999994,-9.60067081451416,0.0,0.0,0.0,0.0,8.432836036072686e-05,0.08814304322004318,1492.0,0.0,0.0,1068.0,0.0,-0.05305800926062762,0.0,5.0,2.218787670135498,0.0,1500.0,0.0,34.299777999999996,0.0,0.0,0.0,1594.0,1500.0,1.5995176485525977e-05,0.0,0.008028514559173916,0.0,0.0,1.0,0.6709675192832947,0.0014350499449871893,0.0,34.319804999999995,1418.0,0.0,1569.0,5.0,1500.0,,,,,,,,,,,,,,,,
30.500138,-9.500718116760254,0.0,0.0,0.0,0.0,6.669012775277864e-05,0.080832339823246,1492.0,0.0,0.0,1068.0,0.0,-0.05305800926062762,0.0,5.0,2.2817540168762207,0.0,1500.0,0.0,34.379792,0.0,0.0,0.0,1582.0,1500.0,1.9398777306780963e-05,0.0,0.008028514559173916,0.0,0.0,1.0,0.7805677652359009,0.0018381834842918447,0.0,34.419519,1418.0,0.0,1569.0,5.0,1500.0,,,,,,,,,,,,,,,,
30.600060999999997,-9.410005569458008,0.0,0.0,0.0,0.0,9.928480405505319e-05,0.0821770653128624,1492.0,0.0,0.0,1068.0,0.0,-0.05305800926062762,0.0,5.0,2.318544626235962,0.0,1500.0,0.0,34.499773,0.0,0.0,0.0,1558.0,1500.0,1.893165740491763e-05,0.0,0.008028514559173916,0.0,0.0,1.0,0.6415625214576721,0.0026339318568183176,0.0,34.519442,1417.0,0.0,1569.0,5.0,1500.0,,,,,,,,,,,,,,,,
30.700163999999994,-9.514019966125488,0.0,0.0,0.0,0.0,-8.032961398736602e-06,0.07909281551837921,1492.0,0.0,0.0,1067.0,0.0,-0.05305800926062762,0.0,5.0,2.5051169395446777,0.0,1501.0,0.0,34.580508,0.0,0.0,0.0,1547.0,1500.0,-2.3999039021384487e-05,0.0,0.008028514559173916,0.0,0.0,1.0,0.6442357301712036,9.342450052131688e-05,0.0,34.619544999999995,1417.0,0.0,1569.0,5.0,1500.0,,,,,,,,,,,,,,,,
30.800171999999996,-9.462336540222168,0.0,0.0,0.0,0.0,9.83380847473781e-06,0.09467332065105438,1492.0,0.0,0.0,1067.0,0.0,-0.05305800926062762,0.0,5.0,2.485334873199463,0.0,1500.0,0.0,34.699771,0.0,0.0,0.0,1546.0,1500.0,7.199493284618789e-06,0.0,0.008028514559173916,0.0,0.0,1.0,0.6255235075950623,-9.934808745296549e-06,0.0,34.719553,1418.0,0.0,1570.0,5.0,1500.0,,,,,,,,,,,,,,,,
30.900140999999998,-9.447046279907227,0.0,0.0,0.0,0.0,-3.219126343501731e-06,0.07849161326885223,1493.0,0.0,0.0,1067.0,0.0,-0.05305800926062762,0.0,5.0,2.4898786544799805,0.0,1500.0,0.0,34.779759999999996,0.0,0.0,0.0,1546.0,1500.0,4.4540054637134585e-06,0.0,0.008028514559173916,0.0,0.0,1.0,0.5480013489723206,-0.00043817166265614844,0.0,34.819522,1418.0,0.0,1569.0,5.0,1500.0,,,,,,,,,,,,,,,,
31.000166999999998,-9.433548927307129,0.0,0.0,0.0,0.0,-0.00011858877207931365,0.06936874240636826,1492.0,0.0,0.0,1067.0,0.0,-0.05305800926062762,0.0,5.0,2.3160200119018555,0.0,1500.0,0.0,34.89977,0.0,0.0,0.0,1569.0,1500.0,-1.639672108448616e-05,0.0,0.008028514559173916,0.0,0.0,1.0,0.6576015949249268,-0.003922869575200344,0.0,34.919548,1418.0,0.0,1570.0,5.0,1500.0,,,,,,,,,,,,,,,,
31.100109999999994,-9.458925247192383,0.0,0.0,0.0,0.0,-7.374016566912429e-05,0.1091410368680954,1492.0,0.0,0.0,1067.0,0.0,-0.05305800926062762,0.0,5.0,2.1760191917419434,0.0,1500.0,0.0,34.979777,0.0,0.0,0.0,1591.0,1500.0,-7.325609014035612e-06,0.0,0.008028514559173916,0.0,0.0,1.0,0.585425853729248,-0.0015628836278684319,0.0,35.019490999999995,1418.0,0.0,1570.0,5.0,1500.0,,,,,,,,,,,,,,,,
31.199999999999996,-9.638534545898438,0.0,0.0,0.0,0.0,-5.942938493274386e-05,0.08724642544984818,1492.0,0.0,0.0,1067.0,0.0,-0.05305800926062762,0.0,5.0,2.205216407775879,0.0,1500.0,0.0,35.099799,0.0,0.0,0.0,1604.0,1500.0,4.7030720923065233e-07,0.0,0.008028514559173916,0.0,0.0,1.0,0.6041380763053894,-0.001076587812076711,0.0,35.119381,1418.0,0.0,1570.0,5.0,1500.0,,,,,,,,,,,,,,,,
31.300152999999995,-9.560868263244629,0.0,0.0,0.0,0.0,-3.070296271115953e-05,0.06518466025590897,1492.0,0.0,0.0,1067.0,0.0,-0.05305800926062762,0.0,5.0,2.0937886238098145,0.0,1500.0,0.0,35.179781,0.0,0.0,0.0,1614.0,1500.0,9.528371498093484e-08,0.0,0.008028514559173916,0.0,0.0,1.0,0.6362161636352539,-0.001442640344205403,0.0,35.219533999999996,1418.0,0.0,1570.0,5.0,1500.0,,,,,,,,,,,,,,,,
