time_index,acceleration_z,servos_1,servos_6,position_y,airspeed_0,axis_rate_roll,acceleration_y,tx_controls_2,position_z,velocity_y,tx_controls_0,servos_2,attitude_pitch,wind_x,mode_0,acceleration_x,wind_y,tx_controls_6,servos_3,time_actual,servos_0,velocity_z,servos_5,tx_controls_3,tx_controls_5,axis_rate_yaw,servos_7,attitude_roll,velocity_x,servos_4,mode_2,altitude_baro,axis_rate_pitch,position_x,time_flight,tx_controls_4,attitude_yaw,tx_controls_1,mode_1,tx_controls_7,current_0,current_1,magnetometer_0,rpm_1,global_position_latitude,airspeed_1,magnetometer_2,battery_1,rpm_0,current_2,magnetometer_1,current_3,battery_0,altitude_gps,gps_sat_count_0,global_position_longitude
0.0,-9.631811141967773,0.0,0.0,,0.0,-9.318419184482926e-05,0.0666404440999031,1491.0,,,1020.0,0.0,,,0.0,1.9602500200271606,,1500.0,0.0,,0.0,,0.0,1602.0,1500.0,-2.831311268812296e-07,0.0,,,0.0,0.0,0.4558683931827545,4.789667953339977e-06,,7.542542999999999,1418.0,,1568.0,0.0,1500.0,,,,,,,,,,,,,,,,
0.10000500000000034,-9.530001640319824,0.0,0.0,,0.0,-2.0088957674611218e-05,0.018474798649549484,1491.0,,,1019.0,0.0,,,0.0,1.9726173877716064,,1500.0,0.0,,0.0,,0.0,1602.0,1500.0,-1.3496173090416504e-05,0.0,,,0.0,0.0,0.0,-6.809366558084221e-06,,7.642548,1418.0,,1568.0,0.0,1500.0,,,,,,,,,,,,,,,,
0.20002500000000012,-9.653291702270508,0.0,0.0,,0.0,-2.4973866674488153e-05,0.052538178861141205,1490.0,,,1019.0,0.0,,,5.0,1.9786672592163086,,1500.0,0.0,,0.0,,0.0,1603.0,1500.0,1.266058831670275e-06,0.0,,,0.0,1.0,0.07554760575294495,-9.807553158876297e-06,,7.7425679999999995,1417.0,,1569.0,5.0,1500.0,,,,,,,,,,,,,,,,
0.30003400000000013,-9.547866821289062,0.0,0.0,,0.0,-8.786541994742433e-05,0.023658711463212967,1491.0,,,1020.0,0.0,,,5.0,1.980215072631836,,1500.0,0.0,,0.0,,0.0,1602.0,1500.0,2.3634000323994017e-06,0.0,,,0.0,1.0,-0.03237754479050636,9.618772723984864e-06,,7.8425769999999995,1418.0,,1568.0,5.0,1500.0,,,,,,,,,,,,,,,,
0.4000390000000005,-9.610350608825684,0.0,0.0,,0.0,2.1626529276195648e-05,0.06234683841466904,1491.0,,,1020.0,0.0,,,5.0,1.9749538898468018,,1500.0,0.0,,0.0,,0.0,1602.0,1500.0,-2.28718733402508e-06,0.0,,,0.0,1.0,0.13220831751823425,-1.0310713673086908e-05,,7.942582,1418.0,,1568.0,5.0,1500.0,,,,,,,,,,,,,,,,
0.5000120000000008,-9.588183403015137,0.0,0.0,,0.0,-0.00010980706177789412,0.03686439245939255,1491.0,,,1019.0,0.0,,,5.0,1.9775810241699219,,1500.0,0.0,,0.0,,0.0,1602.0,1500.0,-2.041568214113955e-06,0.0,,,0.0,1.0,0.1618877351284027,-2.357793195677544e-06,,8.042555,1418.0,,1568.0,5.0,1500.0,,,,,,,,,,,,,,,,
0.6000260000000006,-9.569549560546875,0.0,0.0,,0.0,3.63594065787193e-05,0.033559974282979965,1490.0,,,1020.0,0.0,,,5.0,1.9688493013381958,,1500.0,0.0,,0.0,,0.0,1603.0,1500.0,-8.623167570494275e-06,0.0,,,0.0,1.0,0.0512644462287426,-7.991422652608077e-06,,8.142569,1417.0,,1568.0,5.0,1501.0,,,,,,,,,,,,,,,,
0.7000420000000007,-9.615216255187988,0.0,0.0,,0.0,-7.485461666191001e-05,0.058939505368471146,1491.0,,,1020.0,0.0,,,5.0,1.9786609411239624,,1500.0,0.0,,0.0,,0.0,1602.0,1500.0,-1.1292572476209051e-05,0.0,,,0.0,1.0,0.1052270233631134,1.0968425132901263e-06,,8.242585,1418.0,,1568.0,5.0,1500.0,,,,,,,,,,,,,,,,
0.7999970000000003,-9.534936904907227,0.0,0.0,,0.0,-2.8865161714926832e-05,0.02011910080909729,1491.0,,,1019.0,0.0,,,5.0,1.9763624668121338,,1500.0,0.0,,0.0,,0.0,1602.0,1500.0,6.021794958915083e-07,0.0,,,0.0,1.0,0.005396257620304823,2.810795938075948e-06,,8.34254,1418.0,,1568.0,5.0,1500.0,,,,,,,,,,,,,,,,
0.900024000000001,-9.621110916137695,0.0,0.0,,0.0,-2.0421503335996634e-05,0.05784216523170471,1491.0,,,1019.0,0.0,,,5.0,1.9768998622894287,,1500.0,0.0,,0.0,,0.0,1602.0,1500.0,-8.192240922256977e-07,0.0,,,0.0,1.0,-0.02158503048121929,5.921173116817823e-06,,8.442567,1418.0,,1568.0,5.0,1500.0,,,,,,,,,,,,,,,,
1.0000729999999995,-9.552825927734375,0.0,0.0,0.0,0.0,-6.819718532142635e-05,0.03335483372211456,1490.0,0.0,0.0,1020.0,0.0,-0.05305800926062762,0.0,5.0,1.977783441543579,0.0,1500.0,0.0,8.523375999999999,0.0,0.0,0.0,1603.0,1501.0,1.1249165461783462e-05,0.0,0.008028514559173916,0.0,0.0,1.0,0.08903825283050537,-2.5925031627659672e-06,0.0,8.542615999999999,1417.0,0.0,1568.0,5.0,1500.0,,,,,,,,,,,,,,,,
1.1001319999999994,-9.60379409790039,0.0,0.0,0.0,0.0,1.3423289292609015e-06,0.049254391342401505,1491.0,0.0,0.0,1020.0,0.0,-0.05305800926062762,0.0,5.0,1.9753059148788452,0.0,1500.0,0.0,8.603417,0.0,0.0,0.0,1602.0,1500.0,5.398008975725066e-07,0.0,0.008028514559173916,0.0,0.0,1.0,0.14569894969463348,-7.09336403851287e-07,0.0,8.642674999999999,1418.0,0.0,1568.0,5.0,1500.0,,,,,,,,,,,,,,,,
1.2000719999999996,-9.587331771850586,0.0,0.0,0.0,0.0,-7.275867767509862e-05,0.04740781709551811,1491.0,0.0,0.0,1019.0,0.0,-0.05305800926062762,0.0,5.0,1.9563008546829224,0.0,1500.0,0.0,8.723495,0.0,0.0,0.0,1602.0,1500.0,4.905952670081058e-06,0.0,0.008028514559173916,0.0,0.0,1.0,0.1510952115058899,1.7921723019636382e-06,0.0,8.742614999999999,1418.0,0.0,1568.0,5.0,1500.0,,,,,,,,,,,,,,,,
1.3000660000000002,-9.57522201538086,0.0,0.0,0.0,0.0,6.8660932384384705e-06,0.05195659399032593,1490.0,0.0,0.0,1019.0,0.0,-0.05305800926062762,0.0,5.0,1.9743216037750244,0.0,1500.0,0.0,8.803105,0.0,0.0,0.0,1603.0,1500.0,-1.4023846625692835e-05,0.0,0.008028514559173916,0.0,0.0,1.0,0.07824573665857315,-5.685115030082741e-06,0.0,8.842609,1417.0,0.0,1569.0,5.0,1500.0,,,,,,,,,,,,,,,,
1.4000390000000005,-9.630943298339844,0.0,0.0,0.0,0.0,-6.420978672233315e-05,0.04508253186941147,1491.0,0.0,0.0,1020.0,0.0,-0.05305800926062762,0.0,5.0,1.9703128337860107,0.0,1500.0,0.0,8.922945,0.0,0.0,0.0,1602.0,1500.0,-1.1400754252255524e-05,0.0,0.008028514559173916,0.0,0.0,1.0,0.04317006096243858,6.4822743302054085e-06,0.0,8.942582,1418.0,0.0,1568.0,5.0,1500.0,,,,,,,,,,,,,,,,
1.5000550000000006,-9.564227104187012,0.0,0.0,0.0,0.0,-3.6665062993075514e-05,0.031034164130687714,1491.0,0.0,0.0,1020.0,0.0,-0.05305800926062762,0.0,5.0,1.973698377609253,0.0,1500.0,0.0,9.00358,0.0,0.0,0.0,1602.0,1500.0,4.739061686655682e-08,0.0,0.008028514559173916,0.0,0.0,1.0,-0.010792515240609646,1.2002888285935889e-05,0.0,9.042598,1418.0,0.0,1568.0,5.0,1500.0,,,,,,,,,,,,,,,,
1.6000590000000008,-9.632356643676758,0.0,0.0,0.0,0.0,-3.24448023768843e-05,0.043145813047885895,1491.0,0.0,0.0,1019.0,0.0,-0.05305800926062762,0.0,5.0,1.9736506938934326,0.0,1500.0,0.0,9.123211,0.0,0.0,0.0,1602.0,1500.0,7.166425240535354e-06,0.0,0.008028514559173916,0.0,0.0,1.0,0.08634012192487717,-4.896908991788255e-06,0.0,9.142602,1418.0,0.0,1568.0,5.0,1500.0,,,,,,,,,,,,,,,,
1.700119,-9.570708274841309,0.0,0.0,0.0,0.0,-6.464296082926548e-05,0.029808763414621353,1490.0,0.0,0.0,1019.0,0.0,-0.05305800926062762,0.0,5.0,1.9699242115020752,0.0,1500.0,0.0,9.20313,0.0,0.0,0.0,1603.0,1500.0,-1.769094388294949e-06,0.0,0.008028514559173916,0.0,0.0,1.0,0.03237754479050636,5.996519493392078e-06,0.0,9.242662,1417.0,0.0,1569.0,5.0,1500.0,,,,,,,,,,,,,,,,
1.8000499999999997,-9.599446296691895,0.0,0.0,0.0,0.0,-3.6662240780280927e-06,0.047137822955846786,1491.0,0.0,0.0,1019.0,0.0,-0.05305800926062762,0.0,5.0,1.9752845764160156,0.0,1500.0,0.0,9.322937999999999,0.0,0.0,0.0,1602.0,1500.0,8.982383041196993e-06,0.0,0.008028514559173916,0.0,0.0,1.0,0.09713263809680939,3.6832231353134106e-06,0.0,9.342592999999999,1418.0,0.0,1568.0,5.0,1500.0,,,,,,,,,,,,,,,,
1.9000560000000002,-9.600422859191895,0.0,0.0,0.0,0.0,-6.264116062085494e-05,0.04330485314130783,1491.0,0.0,0.0,1020.0,0.0,-0.05305800926062762,0.0,5.0,1.9863007068634033,0.0,1500.0,0.0,9.403101999999999,0.0,0.0,0.0,1602.0,1500.0,8.254497483746624e-06,0.0,0.008028514559173916,0.0,0.0,1.0,0.1510952115058899,-1.6098496598747219e-06,0.0,9.442599,1418.0,0.0,1568.0,5.0,1500.0,,,,,,,,,,,,,,,,
2.000052000000001,-9.570146560668945,0.0,0.0,0.0,0.0,6.410159072347201e-06,0.032202769070863724,1490.0,0.0,0.0,1020.0,0.0,-0.05305800926062762,0.0,5.0,1.967118740081787,0.0,1500.0,0.0,9.523316,0.0,0.0,0.0,1603.0,1501.0,4.511569258301956e-06,0.0,0.008028514559173916,0.0,0.0,1.0,0.1052270233631134,3.3767674495690947e-06,0.0,9.542595,1417.0,0.0,1568.0,5.0,1500.0,,,,,,,,,,,,,,,,
2.1000640000000006,-9.606849670410156,0.0,0.0,0.0,0.0,-4.0214394836993495e-05,0.05121355131268501,1491.0,0.0,0.0,1020.0,0.0,-0.05305800926062762,0.0,5.0,1.9737739562988281,0.0,1500.0,0.0,9.603572999999999,0.0,0.0,0.0,1602.0,1500.0,1.9296599336372646e-06,0.0,0.008028514559173916,0.0,0.0,1.0,0.0512644462287426,3.674625697830551e-06,0.0,9.642607,1418.0,0.0,1568.0,5.0,1500.0,,,,,,,,,,,,,,,,
2.1999839999999997,-9.562572479248047,0.0,0.0,0.0,0.0,-2.921510391047153e-05,0.02784467488527298,1491.0,0.0,0.0,1020.0,0.0,-0.05305800926062762,0.0,5.0,1.9591749906539917,0.0,1500.0,0.0,9.722913,0.0,0.0,0.0,1602.0,1500.0,-9.321690635037687e-06,0.0,0.008028514559173916,0.0,0.0,1.0,0.23743534088134766,-4.236317665984175e-06,0.0,9.742526999999999,1418.0,0.0,1568.0,5.0,1500.0,,,,,,,,,,,,,,,,
2.3000820000000006,-9.61640739440918,0.0,0.0,0.0,0.0,-2.664384658506092e-05,0.05807659029960632,1491.0,0.0,0.0,1019.0,0.0,-0.05305800926062762,0.0,5.0,1.9640411138534546,0.0,1500.0,0.0,9.803087999999999,0.0,0.0,0.0,1603.0,1500.0,4.804426663337583e-06,0.0,0.008028514559173916,0.0,0.0,1.0,0.08634012192487717,9.355714655449308e-06,0.0,9.842625,1417.0,0.0,1568.0,5.0,1500.0,,,,,,,,,,,,,,,,
2.400094,-9.588441848754883,0.0,0.0,0.0,0.0,-4.933954141216631e-05,0.02928279899060726,1491.0,0.0,0.0,1019.0,0.0,-0.05305800926062762,0.0,5.0,1.9698280096054077,0.0,1500.0,0.0,9.923036999999999,0.0,0.0,0.0,1602.0,1500.0,3.817293735765082e-06,0.0,0.008028514559173916,0.0,0.0,1.0,0.08634012192487717,2.8541986348613724e-06,0.0,9.942637,1418.0,0.0,1568.0,5.0,1500.0,,,,,,,,,,,,,,,,
2.500058,-9.589277267456055,0.0,0.0,0.0,0.0,-1.079257755417552e-05,0.057830117642879486,1491.0,0.0,0.0,1020.0,0.0,-0.05305800926062762,0.0,5.0,1.9695461988449097,0.0,1500.0,0.0,10.003568,0.0,0.0,0.0,1602.0,1500.0,4.5187015553907576e-07,0.0,0.008028514559173916,0.0,0.0,1.0,0.2077559232711792,-1.6151259685430452e-05,0.0,10.042601,1418.0,0.0,1568.0,5.0,1500.0,,,,,,,,,,,,,,,,
2.6000249999999996,-9.606694221496582,0.0,0.0,0.0,0.0,-6.89593737680472e-05,0.04029937833547592,1491.0,0.0,0.0,1020.0,0.0,-0.05305800926062762,0.0,5.0,1.9716218709945679,0.0,1500.0,0.0,10.122912999999999,0.0,0.0,0.0,1602.0,1500.0,8.777520666586952e-06,0.0,0.008028514559173916,0.0,0.0,1.0,0.14300082623958588,2.3085856856697774e-07,0.0,10.142567999999999,1418.0,0.0,1568.0,5.0,1500.0,,,,,,,,,,,,,,,,
2.7000520000000003,-9.585868835449219,0.0,0.0,0.0,0.0,-1.0915441338611972e-05,0.03976104408502579,1490.0,0.0,0.0,1019.0,0.0,-0.05305800926062762,0.0,5.0,1.9775513410568237,0.0,1501.0,0.0,10.203097999999999,0.0,0.0,0.0,1603.0,1500.0,-1.2718462473425427e-05,0.0,0.008028514559173916,0.0,0.0,1.0,0.12141579389572144,-7.477881515526666e-06,0.0,10.242595,1417.0,0.0,1569.0,5.0,1500.0,,,,,,,,,,,,,,,,
2.800052,-9.611149787902832,0.0,0.0,0.0,0.0,-4.643006961781312e-05,0.052532076835632324,1491.0,0.0,0.0,1020.0,0.0,-0.05305800926062762,0.0,5.0,1.9726263284683228,0.0,1500.0,0.0,10.322949,0.0,0.0,0.0,1602.0,1500.0,1.0497359669864075e-05,0.0,0.008028514559173916,0.0,0.0,1.0,0.19156715273857117,-4.6849981965990775e-06,0.0,10.342595,1418.0,0.0,1568.0,5.0,1500.0,,,,,,,,,,,,,,,,
2.9000060000000003,-9.576715469360352,0.0,0.0,0.0,0.0,-4.7212535734477154e-05,0.04556678235530853,1491.0,0.0,0.0,1019.0,0.0,-0.05305800926062762,0.0,5.0,1.9667561054229736,0.0,1500.0,0.0,10.4031,0.0,0.0,0.0,1602.0,1500.0,-3.9812863444932645e-06,0.0,0.008028514559173916,0.0,0.0,1.0,0.03777380287647247,-2.144762353833927e-07,0.0,10.442549,1418.0,0.0,1568.0,5.0,1500.0,,,,,,,,,,,,,,,,
3.000063,-9.604740142822266,0.0,0.0,0.0,0.0,-2.2684812342060174e-05,0.05471381917595863,1490.0,0.0,0.0,1019.0,0.0,-0.05305800926062762,0.0,5.0,1.9652470350265503,0.0,1500.0,0.0,10.523579999999999,0.0,0.0,0.0,1603.0,1500.0,-8.576422258285025e-06,0.0,0.008028514559173916,0.0,0.0,1.0,0.06475508958101273,-1.961199152134215e-06,0.0,10.542606,1417.0,0.0,1569.0,5.0,1500.0,,,,,,,,,,,,,,,,
3.100123000000001,-9.590607643127441,0.0,0.0,0.0,0.0,-5.661966383309004e-05,0.026588773354887962,1491.0,0.0,0.0,1020.0,0.0,-0.05305800926062762,0.0,5.0,1.9710110425949097,0.0,1500.0,0.0,10.603334,0.0,0.0,0.0,1602.0,1500.0,-2.941227783784276e-06,0.0,0.008028514559173916,0.0,0.0,1.0,0.17807650566101074,-5.803490500578775e-06,0.0,10.642666,1418.0,0.0,1568.0,5.0,1500.0,,,,,,,,,,,,,,,,
3.2000280000000005,-9.600680351257324,0.0,0.0,0.0,0.0,3.092068606592546e-06,0.03662438690662384,1492.0,0.0,0.0,1020.0,0.0,-0.05305800926062762,0.0,5.0,1.9794570207595825,0.0,1500.0,0.0,10.722947999999999,0.0,0.0,0.0,1602.0,1500.0,-2.911044177309563e-06,0.0,0.008028514559173916,0.0,0.0,1.0,0.16728398203849792,-1.6172126586366667e-05,0.0,10.742571,1418.0,0.0,1569.0,5.0,1500.0,,,,,,,,,,,,,,,,
3.3000490000000005,-9.447853088378906,0.0,0.0,0.0,0.0,-5.390940490818106e-05,0.03778139874339104,1493.0,0.0,0.0,1020.0,0.0,-0.05305800926062762,0.0,5.0,1.9021660089492798,0.0,1501.0,0.0,10.80298,0.0,0.0,0.0,1603.0,1500.0,8.862586305150339e-07,0.0,0.008028514559173916,0.0,0.0,1.0,0.09173637628555298,0.0004108566089380131,0.0,10.842592,1417.0,0.0,1570.0,5.0,1500.0,,,,,,,,,,,,,,,,
3.400061,-9.49010181427002,0.0,0.0,0.0,0.0,-1.5063005085416942e-05,0.024923570454120636,1498.0,0.0,0.0,1020.0,0.0,-0.05305800926062762,0.0,5.0,1.9894541501998901,0.0,1500.0,0.0,10.923036,0.0,0.0,0.0,1603.0,1500.0,-1.6891305241457064e-05,0.0,0.008028514559173916,0.0,0.0,1.0,0.1510952115058899,0.0007490437700764402,0.0,10.942604,1417.0,0.0,1577.0,5.0,1500.0,,,,,,,,,,,,,,,,
3.500122,-9.575021743774414,0.0,0.0,0.0,0.0,-5.1691852728707934e-05,0.00971442274749279,1505.0,0.0,0.0,1019.0,0.0,-0.05305800926062762,0.0,5.0,2.1472270488739014,0.0,1500.0,0.0,11.003518999999999,0.0,0.0,0.0,1602.0,1500.0,-6.270532684919147e-06,0.0,0.008028514559173916,0.0,0.0,1.0,0.2644166350364685,0.0008030816882742235,0.0,11.042665,1418.0,0.0,1584.0,5.0,1500.0,,,,,,,,,,,,,,,,
3.600041,-9.456809043884277,0.0,0.0,0.0,0.0,-4.653231133690857e-05,0.009780784137547016,1526.0,0.0,0.0,1020.0,0.0,-0.05305800926062762,0.0,5.0,2.2283878326416016,0.0,1500.0,0.0,11.122919,0.0,0.0,0.0,1603.0,1500.0,-3.235817730828502e-05,0.0,0.008028514559173916,0.0,0.0,1.0,0.16728398203849792,0.0017057966801992724,0.0,11.142584,1418.0,0.0,1608.0,5.0,1500.0,,,,,,,,,,,,,,,,
3.7000470000000005,-9.568597793579102,0.0,0.0,0.0,0.0,7.149195316490652e-05,0.043036457151174545,1548.0,0.0,0.0,1020.0,0.0,-0.05305800926062762,0.0,5.0,2.5533406734466553,0.0,1500.0,0.0,11.202945999999999,0.0,0.0,0.0,1603.0,1500.0,-9.412757082289e-05,0.0,0.008028514559173916,0.0,0.0,1.0,0.17807650566101074,0.007363373057662785,0.0,11.24259,1418.0,0.0,1633.0,5.0,1500.0,,,,,,,,,,,,,,,,
3.8000309999999997,-9.210515975952148,0.0,0.0,0.0,0.0,6.405044649787163e-05,0.0779486894607544,1596.0,0.0,0.0,1020.0,0.0,-0.05305800926062762,0.0,5.0,2.665303945541382,0.0,1500.0,0.0,11.322939,0.0,0.0,0.0,1603.0,1501.0,-4.465160010884804e-05,0.0,0.008028514559173916,0.0,0.0,1.0,0.14030270278453827,0.0051775071311286405,0.0,11.342573999999999,1417.0,0.0,1684.0,5.0,1500.0,,,,,,,,,,,,,,,,
3.900017000000001,-8.962634086608887,0.0,0.0,0.0,0.0,0.00013703446232111338,0.013170698657631874,1622.0,0.0,0.0,1019.0,0.0,-0.05305800926062762,0.0,5.0,3.0414276123046875,0.0,1500.0,0.0,11.402973,0.0,0.0,0.0,1603.0,1500.0,-9.596328106536775e-05,0.0,0.008028514559173916,0.0,0.0,1.0,0.08634012192487717,0.008928212184382419,0.0,11.44256,1418.0,0.0,1714.0,5.0,1500.0,,,,,,,,,,,,,,,,
4.000125,-8.729907989501953,0.0,0.0,0.0,0.0,0.00013278565245223914,-0.003284797305241227,1671.0,0.0,0.0,1020.0,0.0,-0.05305800926062762,0.0,5.0,3.287907123565674,0.0,1500.0,0.0,11.52356,0.0,0.0,0.0,1603.0,1500.0,-8.699324444321057e-05,0.0,0.008028514559173916,0.0,0.0,1.0,0.24013346433639526,0.005631891827217947,0.0,11.542667999999999,1418.0,0.0,1769.0,5.0,1500.0,,,,,,,,,,,,,,,,
4.100127,-8.746846199035645,0.0,0.0,0.0,0.0,2.195847351570403e-05,0.04157430678606033,1699.0,0.0,0.0,1019.0,0.0,-0.05305800926062762,0.0,5.0,3.5414066314697266,0.0,1500.0,0.0,11.603377,0.0,0.0,0.0,1603.0,1500.0,-0.0001060086031123996,0.0,0.008028514559173916,0.0,0.0,1.0,0.14839708805084229,0.0072760447805974545,0.0,11.642669999999999,1418.0,0.0,1801.0,5.0,1500.0,,,,,,,,,,,,,,,,
4.200114999999999,-9.157033920288086,0.0,0.0,0.0,0.0,9.032252902603879e-05,0.03583556413650513,1756.0,0.0,0.0,1020.0,0.0,-0.05305800926062762,0.0,5.0,4.058457851409912,0.0,1501.0,0.0,11.722937,0.0,0.0,0.0,1603.0,1500.0,-1.3827530130862512e-05,0.0,0.008028514559173916,0.0,0.0,1.0,0.22394469380378723,0.004216288289712003,0.0,11.742657999999999,1417.0,0.0,1864.0,5.0,1500.0,,,,,,,,,,,,,,,,
4.300038,-8.903054237365723,0.0,0.0,0.0,0.0,-6.058827612584865e-06,-0.009939327836036682,1767.0,0.0,0.0,1019.0,0.0,-0.05305800926062762,0.0,5.0,4.131507396697998,0.0,1500.0,0.0,11.802926999999999,0.0,0.0,0.0,1603.0,1500.0,4.69772212977657e-05,0.0,0.008028514559173916,0.0,0.0,1.0,0.3696436583995819,-1.0222136015217946e-05,0.0,11.842581,1418.0,0.0,1877.0,5.0,1500.0,,,,,,,,,,,,,,,,
4.400041000000001,-8.943044662475586,0.0,0.0,0.0,0.0,-7.649081738766636e-05,-0.01972905732691288,1767.0,0.0,0.0,1019.0,0.0,-0.05305800926062762,0.0,5.0,4.1702680587768555,0.0,1500.0,0.0,11.922982,0.0,0.0,0.0,1603.0,1500.0,-2.0137542809488215e-05,0.0,0.008028514559173916,0.0,0.0,1.0,0.09983076900243759,-4.1819000595899016e-05,0.0,11.942584,1418.0,0.0,1877.0,5.0,1500.0,,,,,,,,,,,,,,,,
4.500025,-8.962394714355469,0.0,0.0,0.0,0.0,-4.8238228236464675e-05,0.0302655678242445,1768.0,0.0,0.0,1020.0,0.0,-0.05305800926062762,0.0,5.0,4.101605415344238,0.0,1500.0,0.0,12.003343,0.0,0.0,0.0,1603.0,1500.0,-2.0753988042462075e-05,0.0,0.008028514559173916,0.0,0.0,1.0,0.22934095561504364,6.147215903835788e-05,0.0,12.042568,1418.0,0.0,1876.0,5.0,1500.0,,,,,,,,,,,,,,,,
4.600063,-8.854421615600586,0.0,0.0,0.0,0.0,-4.3529090875642355e-05,0.044750336557626724,1767.0,0.0,0.0,1020.0,0.0,-0.05305800926062762,0.0,5.0,4.052873134613037,0.0,1500.0,0.0,12.122943999999999,0.0,0.0,0.0,1604.0,1500.0,3.6197591584507028e-06,0.0,0.008028514559173916,0.0,0.0,1.0,0.10792515426874161,-4.8747864195006706e-05,0.0,12.142605999999999,1418.0,0.0,1876.0,5.0,1500.0,,,,,,,,,,,,,,,,
4.700063000000001,-8.896345138549805,0.0,0.0,0.0,0.0,4.350896660881443e-06,0.00841209851205349,1767.0,0.0,0.0,1019.0,0.0,-0.05305800926062762,0.0,5.0,4.097683906555176,0.0,1500.0,0.0,12.203123,0.0,0.0,0.0,1604.0,1500.0,1.2170449297270618e-05,0.0,0.008028514559173916,0.0,0.0,1.0,0.23203907907009125,-2.3406872133034464e-05,0.0,12.242606,1417.0,0.0,1877.0,5.0,1500.0,,,,,,,,,,,,,,,,
4.800059999999999,-8.948527336120605,0.0,0.0,0.0,0.0,-3.3783195650145836e-05,-0.01613357663154602,1767.0,0.0,0.0,1020.0,0.0,-0.05305800926062762,0.0,5.0,4.146650314331055,0.0,1500.0,0.0,12.323334,0.0,0.0,0.0,1604.0,1500.0,3.888216563001387e-06,0.0,0.008028514559173916,0.0,0.0,1.0,0.06475508958101273,-1.1506015271720128e-05,0.0,12.342602999999999,1418.0,0.0,1876.0,5.0,1500.0,,,,,,,,,,,,,,,,
4.900042999999999,-8.907120704650879,0.0,0.0,0.0,0.0,-5.873698986948804e-05,0.0010857884772121906,1768.0,0.0,0.0,1020.0,0.0,-0.05305800926062762,0.0,5.0,4.103324890136719,0.0,1500.0,0.0,12.402985,0.0,0.0,0.0,1603.0,1500.0,-9.867570388993564e-06,0.0,0.008028514559173916,0.0,0.0,1.0,0.12681205570697784,1.4661536680106721e-05,0.0,12.442585999999999,1418.0,0.0,1876.0,5.0,1500.0,,,,,,,,,,,,,,,,
5.00003,-8.891072273254395,0.0,0.0,0.0,0.0,-4.337311536276316e-05,0.03077206015586853,1767.0,0.0,0.0,1019.0,0.0,-0.05305800926062762,0.0,5.0,4.079106330871582,0.0,1500.0,0.0,12.523358,0.0,0.0,0.0,1604.0,1500.0,-1.400632411803228e-05,0.0,0.008028514559173916,0.0,0.0,1.0,0.09443450719118118,9.343509829609006e-07,0.0,12.542572999999999,1417.0,0.0,1877.0,5.0,1501.0,,,,,,,,,,,,,,,,
5.100116000000001,-8.889577865600586,0.0,0.0,0.0,0.0,-2.0429917146783084e-05,0.014973162673413754,1767.0,0.0,0.0,1020.0,0.0,-0.05305800926062762,0.0,5.0,4.087678909301758,0.0,1500.0,0.0,12.603551,0.0,0.0,0.0,1604.0,1500.0,5.267007963451523e-06,0.0,0.008028514559173916,0.0,0.0,1.0,0.2023596614599228,-1.6443127080974245e-05,0.0,12.642659,1418.0,0.0,1876.0,5.0,1500.0,,,,,,,,,,,,,,,,
5.200043,-8.910287857055664,0.0,0.0,0.0,0.0,-2.2290411659720413e-05,5.9560101362876594e-05,1767.0,0.0,0.0,1019.0,0.0,-0.05305800926062762,0.0,5.0,4.118268013000488,0.0,1500.0,0.0,12.722945,0.0,0.0,0.0,1604.0,1500.0,8.461826119816514e-07,0.0,0.008028514559173916,0.0,0.0,1.0,0.09983076900243759,-1.1595861807839786e-05,0.0,12.742586,1417.0,0.0,1877.0,5.0,1500.0,,,,,,,,,,,,,,,,
5.300121,-9.05510425567627,0.0,0.0,0.0,0.0,-4.660060522924236e-05,-0.001228166394867003,1767.0,0.0,0.0,1019.0,0.0,-0.05305800926062762,0.0,5.0,4.179332256317139,0.0,1500.0,0.0,12.803065,0.0,0.0,0.0,1603.0,1500.0,-2.658361144110476e-06,0.0,0.008028514559173916,0.0,0.0,1.0,0.39932307600975037,-0.00021909215438510572,0.0,12.842664,1418.0,0.0,1877.0,5.0,1500.0,,,,,,,,,,,,,,,,
5.400041000000001,-8.719902038574219,0.0,0.0,0.0,0.0,-0.00015805844814974953,0.055820342153310776,1701.0,0.0,0.0,1020.0,0.0,-0.05305800926062762,0.0,5.0,3.3616483211517334,0.0,1500.0,0.0,12.922948,0.0,0.0,0.0,1603.0,1500.0,9.404711845585297e-05,0.0,0.008028514559173916,0.0,0.0,1.0,0.3237754702568054,-0.01068245824066093,0.0,12.942584,1418.0,0.0,1802.0,5.0,1500.0,,,,,,,,,,,,,,,,
5.500115,-9.499500274658203,0.0,0.0,0.0,0.0,-0.00026858540378712836,0.01529858447611332,1657.0,0.0,0.0,1020.0,0.0,-0.05305800926062762,0.0,5.0,3.3634262084960938,0.0,1500.0,0.0,13.003342,0.0,0.0,0.0,1603.0,1500.0,3.960944976558721e-05,0.0,0.008028514559173916,0.0,0.0,1.0,0.39662492275238037,-0.00502606117022505,0.0,13.042658,1418.0,0.0,1753.0,5.0,1500.0,,,,,,,,,,,,,,,,
5.600033000000001,-9.4586820602417,0.0,0.0,0.0,0.0,-6.663329744906043e-05,0.014142416417598724,1588.0,0.0,0.0,1020.0,0.0,-0.05305800926062762,0.0,5.0,2.8687524795532227,0.0,1500.0,0.0,13.122943999999999,0.0,0.0,0.0,1603.0,1500.0,0.00014396230594122692,0.0,0.008028514559173916,0.0,0.0,1.0,0.22664281725883484,-0.010715723827449002,0.0,13.142576,1418.0,0.0,1676.0,5.0,1500.0,,,,,,,,,,,,,,,,
5.700061000000001,-9.7749605178833,0.0,0.0,0.0,0.0,-0.0003033802763713301,0.06019412726163864,1552.0,0.0,0.0,1020.0,0.0,-0.05305800926062762,0.0,5.0,2.4259564876556396,0.0,1500.0,0.0,13.203087,0.0,0.0,0.0,1603.0,1500.0,0.00012439972650984268,0.0,0.008028514559173916,0.0,0.0,1.0,0.19156715273857117,-0.008579630405123566,0.0,13.242604,1418.0,0.0,1638.0,5.0,1500.0,,,,,,,,,,,,,,,,
5.8000739999999995,-9.65951156616211,0.0,0.0,0.0,0.0,2.636727785851413e-05,-0.04633713886141777,1507.0,0.0,0.0,1020.0,0.0,-0.05305800926062762,0.0,5.0,2.1885976791381836,0.0,1500.0,0.0,13.322963999999999,0.0,0.0,0.0,1603.0,1500.0,4.5386269440933346e-05,0.0,0.008028514559173916,0.0,0.0,1.0,0.22664281725883484,-0.001992054118129303,0.0,13.342616999999999,1418.0,0.0,1585.0,5.0,1500.0,,,,,,,,,,,,,,,,
5.900144,-9.770875930786133,0.0,0.0,0.0,0.0,-4.623113307733945e-05,0.06798908114433289,1497.0,0.0,0.0,1020.0,0.0,-0.05305800926062762,0.0,5.0,2.0091283321380615,0.0,1500.0,0.0,13.403013,0.0,0.0,0.0,1603.0,1500.0,-1.0403955398248865e-05,0.0,0.008028514559173916,0.0,0.0,1.0,0.21854843199253082,-0.0008409869360053364,0.0,13.442687,1418.0,0.0,1575.0,5.0,1500.0,,,,,,,,,,,,,,,,
6.000564,-9.43619155883789,0.0,0.0,0.0,0.0,-0.00019456062740568264,0.013355394825339317,1492.0,0.0,0.0,1020.0,0.0,-0.05305800926062762,0.0,5.0,1.9812180995941162,0.0,1500.0,0.0,13.523354,0.0,0.0,0.0,1603.0,1500.0,-1.1215895250548795e-05,0.0,0.008028514559173916,0.0,0.0,1.0,0.21315217018127441,-8.263513833916973e-05,0.0,13.543107,1418.0,0.0,1569.0,5.0,1500.0,,,,,,,,,,,,,,,,
6.100116000000001,-9.611978530883789,0.0,0.0,0.0,0.0,0.00016508646914900222,0.09600058943033218,1491.0,0.0,0.0,1020.0,0.0,-0.05305800926062762,0.0,5.0,1.9056789875030518,0.0,1500.0,0.0,13.603537,0.0,0.0,0.0,1602.0,1500.0,-3.5622888280728252e-06,0.0,0.008028514559173916,0.0,0.0,1.0,0.21585030853748322,-4.820927464947918e-05,0.0,13.642659,1418.0,0.0,1568.0,5.0,1500.0,,,,,,,,,,,,,,,,
6.200024999999999,-9.628127098083496,0.0,0.0,0.0,0.0,-0.00019433839389479664,0.03407517075538635,1491.0,0.0,0.0,1019.0,0.0,-0.05305800926062762,0.0,5.0,1.972663164138794,0.0,1500.0,0.0,13.722982,0.0,0.0,0.0,1603.0,1500.0,1.2585424296930737e-05,0.0,0.008028514559173916,0.0,0.0,1.0,0.2536241114139557,2.6180830981142197e-05,0.0,13.742567999999999,1417.0,0.0,1568.0,5.0,1500.0,,,,,,,,,,,,,,,,
6.3000549999999995,-9.566913604736328,0.0,0.0,0.0,0.0,0.00010725596021268675,-0.0031895372085273266,1490.0,0.0,0.0,1019.0,0.0,-0.05305800926062762,0.0,5.0,1.974795937538147,0.0,1500.0,0.0,13.802947,0.0,0.0,0.0,1603.0,1500.0,-7.697065248583533e-06,0.0,0.008028514559173916,0.0,0.0,1.0,0.2509259879589081,4.203750366568289e-05,0.0,13.842597999999999,1417.0,0.0,1569.0,5.0,1501.0,,,,,,,,,,,,,,,,
6.400128,-9.67595100402832,0.0,0.0,0.0,0.0,-0.00016020755608141962,0.08264698088169098,1491.0,0.0,0.0,1020.0,0.0,-0.05305800926062762,0.0,5.0,1.9351154565811157,0.0,1500.0,0.0,13.922939999999999,0.0,0.0,0.0,1602.0,1500.0,6.1068931067691204e-06,0.0,0.008028514559173916,0.0,0.0,1.0,0.23203907907009125,1.419702463290275e-05,0.0,13.942670999999999,1418.0,0.0,1568.0,5.0,1500.0,,,,,,,,,,,,,,,,
6.500056,-9.350931167602539,0.0,0.0,0.0,0.0,5.498378108883286e-06,0.01727355271577835,1491.0,0.0,0.0,1020.0,0.0,-0.05305800926062762,0.0,5.0,1.916365146636963,0.0,1500.0,0.0,14.003534,0.0,0.0,0.0,1602.0,1500.0,3.5526823326856378e-06,0.0,0.008028514559173916,0.0,0.0,1.0,0.29679417610168457,0.00012879407234563602,0.0,14.042599,1418.0,0.0,1568.0,5.0,1500.0,,,,,,,,,,,,,,,,
6.600115,-9.770269393920898,0.0,0.0,0.0,0.0,2.5911003868744033e-05,0.07895252853631973,1491.0,0.0,0.0,1019.0,0.0,-0.05305800926062762,0.0,5.0,1.98529052734375,0.0,1500.0,0.0,14.123037,0.0,0.0,0.0,1603.0,1500.0,1.2979012247004238e-05,0.0,0.008028514559173916,0.0,0.0,1.0,0.22664281725883484,-0.00011825339810964164,0.0,14.142657999999999,1417.0,0.0,1568.0,5.0,1500.0,,,,,,,,,,,,,,,,
6.700062,-9.565290451049805,0.0,0.0,0.0,0.0,-0.00013031883122304288,-0.01224175002425909,1491.0,0.0,0.0,1020.0,0.0,-0.05305800926062762,0.0,5.0,1.9908299446105957,0.0,1500.0,0.0,14.203073,0.0,0.0,0.0,1602.0,1500.0,-2.0202452941827198e-06,0.0,0.008028514559173916,0.0,0.0,1.0,0.22124655544757843,4.918321642441262e-05,0.0,14.242605,1418.0,0.0,1568.0,5.0,1500.0,,,,,,,,,,,,,,,,
6.800014999999999,-9.556411743164062,0.0,0.0,0.0,0.0,8.02293045392336e-05,0.05272911116480827,1490.0,0.0,0.0,1020.0,0.0,-0.05305800926062762,0.0,5.0,1.9505279064178467,0.0,1500.0,0.0,14.32294,0.0,0.0,0.0,1603.0,1500.0,-1.581916001087615e-05,0.0,0.008028514559173916,0.0,0.0,1.0,0.2509259879589081,-7.181100747067202e-05,0.0,14.342557999999999,1417.0,0.0,1568.0,5.0,1500.0,,,,,,,,,,,,,,,,
6.900053000000001,-9.606117248535156,0.0,0.0,0.0,0.0,-0.00017847064163763616,0.03927344083786011,1489.0,0.0,0.0,1019.0,0.0,-0.05305800926062762,0.0,5.0,1.920596957206726,0.0,1500.0,0.0,14.402972,0.0,0.0,0.0,1603.0,1500.0,6.391737987574763e-06,0.0,0.008028514559173916,0.0,0.0,1.0,0.17807650566101074,-0.00030273577968418624,0.0,14.442596,1417.0,0.0,1568.0,5.0,1500.0,,,,,,,,,,,,,,,,
7.000058999999999,-9.601597785949707,0.0,0.0,0.0,0.0,7.458764223976642e-05,0.046534307301044464,1482.0,0.0,0.0,1020.0,0.0,-0.05305800926062762,0.0,5.0,1.9119908809661865,0.0,1500.0,0.0,14.523315,0.0,0.0,0.0,1603.0,1500.0,7.517032860623052e-06,0.0,0.008028514559173916,0.0,0.0,1.0,0.29139789938926697,-0.0013484762735764353,0.0,14.542601999999999,1417.0,0.0,1560.0,5.0,1500.0,,,,,,,,,,,,,,,,
7.1000559999999995,-9.787019729614258,0.0,0.0,0.0,0.0,-0.0001633398424902292,0.08006656914949417,1473.0,0.0,0.0,1020.0,0.0,-0.05305800926062762,0.0,5.0,1.7716273069381714,0.0,1500.0,0.0,14.603534,0.0,0.0,0.0,1602.0,1500.0,6.061168281511693e-05,0.0,0.008028514559173916,0.0,0.0,1.0,0.3210773169994354,-0.003919209289147436,0.0,14.642598999999999,1418.0,0.0,1549.0,5.0,1500.0,,,,,,,,,,,,,,,,
7.2000839999999995,-9.73498249053955,0.0,0.0,0.0,0.0,-0.0001453723314046059,0.02151454985141754,1447.0,0.0,0.0,1020.0,0.0,-0.05305800926062762,0.0,5.0,1.5846034288406372,0.0,1500.0,0.0,14.722923,0.0,0.0,0.0,1602.0,1501.0,6.082052249825498e-05,0.0,0.008028514559173916,0.0,0.0,1.0,0.14030270278453827,-0.004934010983711333,0.0,14.742626999999999,1417.0,0.0,1520.0,5.0,1500.0,,,,,,,,,,,,,,,,
7.300071999999999,-10.121075630187988,0.0,0.0,0.0,0.0,-0.00010004516385407496,0.08644892275333405,1422.0,0.0,0.0,1020.0,0.0,-0.05305800926062762,0.0,5.0,1.4463038444519043,0.0,1500.0,0.0,14.803047999999999,0.0,0.0,0.0,1603.0,1500.0,3.478113740890192e-05,0.0,0.008028514559173916,0.0,0.0,1.0,0.34266236424446106,-0.004445993475886768,0.0,14.842614999999999,1417.0,0.0,1494.0,5.0,1500.0,,,,,,,,,,,,,,,,
7.400011,-9.830376625061035,0.0,0.0,0.0,0.0,-0.0002701138118324107,0.022133221849799156,1379.0,0.0,0.0,1019.0,0.0,-0.05305800926062762,0.0,5.0,1.1186106204986572,0.0,1500.0,0.0,14.922977,0.0,0.0,0.0,1602.0,1500.0,7.444243136575383e-05,0.0,0.008028514559173916,0.0,0.0,1.0,0.22124655544757843,-0.00745700917741159,0.0,14.942554,1418.0,0.0,1447.0,5.0,1500.0,,,,,,,,,,,,,,,,
7.500134999999999,-10.134135246276855,0.0,0.0,0.0,0.0,-0.0002438070662730876,0.08781711757183075,1355.0,0.0,0.0,1020.0,0.0,-0.05305800926062762,0.0,5.0,0.7654101848602295,0.0,1500.0,0.0,15.00334,0.0,0.0,0.0,1602.0,1500.0,0.00017077379074718785,0.0,0.008028514559173916,0.0,0.0,1.0,0.3723417818546295,-0.01520835279103388,0.0,15.042677999999999,1418.0,0.0,1420.0,5.0,1500.0,,,,,,,,,,,,,,,,
7.600046,-9.827339172363281,0.0,0.0,0.0,0.0,-0.00023720285264139862,-0.012789364904165268,1246.0,0.0,0.0,1019.0,0.0,-0.05305800926062762,0.0,5.0,0.02967097982764244,0.0,1500.0,0.0,15.122931,0.0,0.0,0.0,1604.0,1500.0,4.548617861842463e-05,0.0,0.008028514559173916,0.0,0.0,1.0,0.3183791935443878,-0.0060859587124818555,0.0,15.142589,1418.0,0.0,1302.0,5.0,1500.0,,,,,,,,,,,,,,,,
7.699981999999999,-9.807908058166504,0.0,0.0,0.0,0.0,-4.069850693871365e-05,0.11187467724084854,1199.0,0.0,0.0,1020.0,0.0,-0.05305800926062762,0.0,5.0,-0.4523967206478119,0.0,1500.0,0.0,15.202976,0.0,0.0,0.0,1605.0,1500.0,-4.682298096827497e-05,0.0,0.008028514559173916,0.0,0.0,1.0,0.4074174463748932,-0.001487103431065092,0.0,15.242524999999999,1418.0,0.0,1251.0,5.0,1500.0,,,,,,,,,,,,,,,,
7.800063000000001,-9.614113807678223,0.0,0.0,0.0,0.0,-0.00015581046321056633,0.14741641283035278,1193.0,0.0,0.0,1019.0,0.0,-0.05305800926062762,0.0,5.0,-0.5366000533103943,0.0,1500.0,0.0,15.323087,0.0,0.0,0.0,1604.0,1500.0,3.1041843620560436e-05,0.0,0.008028514559173916,0.0,0.0,1.0,0.4694744050502777,-1.603633019974336e-05,0.0,15.342606,1418.0,0.0,1245.0,5.0,1500.0,,,,,,,,,,,,,,,,
7.900009999999999,-9.722000122070312,0.0,0.0,0.0,0.0,0.00010810698029600977,0.054872311651706696,1193.0,0.0,0.0,1020.0,0.0,-0.05305800926062762,0.0,5.0,-0.47423022985458374,0.0,1500.0,0.0,15.403037999999999,0.0,0.0,0.0,1605.0,1500.0,-1.9084664413194315e-05,0.0,0.008028514559173916,0.0,0.0,1.0,0.33726608753204346,-3.2910949031858784e-05,0.0,15.442552999999998,1418.0,0.0,1244.0,5.0,1500.0,,,,,,,,,,,,,,,,
8.000032000000001,-9.922900199890137,0.0,0.0,0.0,0.0,-0.00010077904483586198,0.05867466703057289,1193.0,0.0,0.0,1020.0,0.0,-0.05305800926062762,0.0,5.0,-0.45726045966148376,0.0,1500.0,0.0,15.523342,0.0,0.0,0.0,1604.0,1500.0,8.493292446388334e-06,0.0,0.008028514559173916,0.0,0.0,1.0,0.43170061707496643,-2.4981977742505424e-06,0.0,15.542575,1417.0,0.0,1244.0,5.0,1501.0,,,,,,,,,,,,,,,,
8.100086999999998,-9.70222282409668,0.0,0.0,0.0,0.0,-8.228811791612224e-05,0.05451512709259987,1193.0,0.0,0.0,1019.0,0.0,-0.05305800926062762,0.0,5.0,-0.44184476137161255,0.0,1500.0,0.0,15.603546,0.0,0.0,0.0,1603.0,1500.0,-2.441592241799732e-06,0.0,0.008028514559173916,0.0,0.0,1.0,0.33456796407699585,-6.565845760497278e-05,0.0,15.642629999999999,1418.0,0.0,1245.0,5.0,1500.0,,,,,,,,,,,,,,,,
8.200047000000001,-9.768160820007324,0.0,0.0,0.0,0.0,-2.7145460876134973e-05,0.12447786331176758,1193.0,0.0,0.0,1019.0,0.0,-0.05305800926062762,0.0,5.0,-0.5326036214828491,0.0,1500.0,0.0,15.722983999999999,0.0,0.0,0.0,1604.0,1500.0,-3.719007736996818e-06,0.0,0.008028514559173916,0.0,0.0,1.0,0.3615492582321167,-7.358341399693082e-05,0.0,15.74259,1418.0,0.0,1245.0,5.0,1500.0,,,,,,,,,,,,,,,,
8.30012,-9.716644287109375,0.0,0.0,0.0,0.0,-6.728846937452156e-05,0.08636999130249023,1193.0,0.0,0.0,1019.0,0.0,-0.05305800926062762,0.0,5.0,-0.47845402359962463,0.0,1500.0,0.0,15.803104,0.0,0.0,0.0,1604.0,1500.0,2.238862425860588e-05,0.0,0.008028514559173916,0.0,0.0,1.0,0.39122867584228516,4.9134200541434506e-05,0.0,15.842663,1418.0,0.0,1245.0,5.0,1500.0,,,,,,,,,,,,,,,,
8.400043,-9.882311820983887,0.0,0.0,0.0,0.0,5.4761944800841986e-05,0.07119552791118622,1194.0,0.0,0.0,1020.0,0.0,-0.05305800926062762,0.0,5.0,-0.4587184488773346,0.0,1500.0,0.0,15.922941,0.0,0.0,0.0,1603.0,1500.0,-2.7512846337944266e-05,0.0,0.008028514559173916,0.0,0.0,1.0,0.22664281725883484,-7.970742476910036e-05,0.0,15.942585999999999,1418.0,0.0,1244.0,5.0,1500.0,,,,,,,,,,,,,,,,
8.500116000000002,-9.806157112121582,0.0,0.0,0.0,0.0,-0.00011521324303053525,0.06602014601230621,1194.0,0.0,0.0,1020.0,0.0,-0.05305800926062762,0.0,5.0,-0.4645104706287384,0.0,1500.0,0.0,16.003343,0.0,0.0,0.0,1603.0,1500.0,1.939201131066435e-05,0.0,0.008028514559173916,0.0,0.0,1.0,0.3237754702568054,2.532751289733633e-05,0.0,16.042659,1418.0,0.0,1244.0,5.0,1500.0,,,,,,,,,,,,,,,,
8.600038000000001,-9.700033187866211,0.0,0.0,0.0,0.0,1.7116367568587321e-06,0.07715320587158203,1193.0,0.0,0.0,1019.0,0.0,-0.05305800926062762,0.0,5.0,-0.47178852558135986,0.0,1500.0,0.0,16.122942,0.0,0.0,0.0,1604.0,1500.0,-1.8852174221108113e-05,0.0,0.008028514559173916,0.0,0.0,1.0,0.42630434036254883,-6.415289952735631e-06,0.0,16.142581,1417.0,0.0,1245.0,5.0,1500.0,,,,,,,,,,,,,,,,
8.700012000000001,-9.802701950073242,0.0,0.0,0.0,0.0,-6.296745637111281e-05,0.10958046466112137,1193.0,0.0,0.0,1020.0,0.0,-0.05305800926062762,0.0,5.0,-0.5077389478683472,0.0,1500.0,0.0,16.20308,0.0,0.0,0.0,1604.0,1500.0,2.5069656315304834e-06,0.0,0.008028514559173916,0.0,0.0,1.0,0.307586669921875,-5.146674214559937e-05,0.0,16.242555,1418.0,0.0,1244.0,5.0,1500.0,,,,,,,,,,,,,,,,
8.800092,-9.71476936340332,0.0,0.0,0.0,0.0,-1.3521069111562698e-05,0.0627562403678894,1193.0,0.0,0.0,1019.0,0.0,-0.05305800926062762,0.0,5.0,-0.4513661563396454,0.0,1500.0,0.0,16.322941,0.0,0.0,0.0,1603.0,1500.0,4.008621832332404e-06,0.0,0.008028514559173916,0.0,0.0,1.0,0.27790728211402893,0.0001622358594890329,0.0,16.342634999999998,1418.0,0.0,1245.0,5.0,1500.0,,,,,,,,,,,,,,,,
8.900056,-8.375133514404297,0.0,0.0,0.0,0.0,0.00040576718195882395,0.17203757166862488,1196.0,0.0,0.0,1019.0,0.0,-0.05305800926062762,0.0,5.0,-0.886055588722229,0.0,1500.0,0.0,16.403055,0.0,0.0,0.0,1604.0,1500.0,-0.00019457107914262674,0.0,0.008028514559173916,0.0,0.0,1.0,0.33186984062194824,0.017450734428880597,0.0,16.442598999999998,1418.0,0.0,1248.0,5.0,1500.0,,,,,,,,,,,,,,,,
9.000056,-10.004905700683594,0.0,0.0,0.0,0.0,0.000235981738665989,-0.02918180823326111,1321.0,0.0,0.0,1020.0,0.0,-0.05305800926062762,0.0,5.0,0.7292708158493042,0.0,1500.0,0.0,16.52358,0.0,0.0,0.0,1606.0,1500.0,-0.00015659640782132993,0.0,0.008028514559173916,0.0,0.0,1.0,0.3615492582321167,0.01664233708147355,0.0,16.542599,1417.0,0.0,1384.0,5.0,1500.0,,,,,,,,,,,,,,,,
9.100088,-10.214424133300781,0.0,0.0,0.0,0.0,0.00010776366593209642,-0.08593105524778366,1411.0,0.0,0.0,1019.0,0.0,-0.05305800926062762,0.0,5.0,1.652352213859558,0.0,1500.0,0.0,16.603355999999998,0.0,0.0,0.0,1604.0,1500.0,-0.00015582611643401447,0.0,0.008028514559173916,0.0,0.0,1.0,0.28600165247917175,0.010230461547025638,0.0,16.642630999999998,1418.0,0.0,1481.0,5.0,1500.0,,,,,,,,,,,,,,,,
9.200054000000002,-9.621685028076172,0.0,0.0,0.0,0.0,-7.854049565388225e-05,0.18667910993099213,1479.0,0.0,0.0,1020.0,0.0,-0.05305800926062762,0.0,5.0,1.6640812158584595,0.0,1500.0,0.0,16.722948,0.0,0.0,0.0,1603.0,1500.0,-0.0001377453754890559,0.0,0.008028514559173916,0.0,0.0,1.0,0.3723417818546295,0.007512907472276132,0.0,16.742597,1417.0,0.0,1556.0,5.0,1500.0,,,,,,,,,,,,,,,,
9.300032999999999,-9.361952781677246,0.0,0.0,0.0,0.0,0.00010928466185911048,0.09294910728931427,1489.0,0.0,0.0,1019.0,0.0,-0.05305800926062762,0.0,5.0,1.8039581775665283,0.0,1500.0,0.0,16.803076,0.0,0.0,0.0,1602.0,1500.0,1.396900243645031e-05,0.0,0.008028514559173916,0.0,0.0,1.0,0.2077559232711792,0.00023735117627999097,0.0,16.842575999999998,1418.0,0.0,1566.0,5.0,1500.0,,,,,,,,,,,,,,,,
9.400046,-9.799659729003906,0.0,0.0,0.0,0.0,5.210655343122819e-05,-0.03574792668223381,1491.0,0.0,0.0,1020.0,0.0,-0.05305800926062762,0.0,5.0,2.073300361633301,0.0,1500.0,0.0,16.92288,0.0,0.0,0.0,1602.0,1500.0,2.223340661856497e-05,0.0,0.008028514559173916,0.0,0.0,1.0,0.24283158779144287,2.7248330430906108e-05,0.0,16.942588999999998,1418.0,0.0,1568.0,5.0,1500.0,,,,,,,,,,,,,,,,
9.500062,-9.675168991088867,0.0,0.0,0.0,0.0,-0.00010932545289155405,-0.04963696748018265,1491.0,0.0,0.0,1020.0,0.0,-0.05305800926062762,0.0,5.0,2.092543840408325,0.0,1500.0,0.0,17.003353,0.0,0.0,0.0,1602.0,1500.0,-3.034866833432901e-05,0.0,0.008028514559173916,0.0,0.0,1.0,0.33456796407699585,8.570190227267346e-05,0.0,17.042605,1418.0,0.0,1568.0,5.0,1500.0,,,,,,,,,,,,,,,,
9.600047,-9.508295059204102,0.0,0.0,0.0,0.0,-4.2257152687962194e-05,0.08854787051677704,1491.0,0.0,0.0,1019.0,0.0,-0.05305800926062762,0.0,5.0,1.889818549156189,0.0,1500.0,0.0,17.12295,0.0,0.0,0.0,1602.0,1500.0,-3.548075766200478e-05,0.0,0.008028514559173916,0.0,0.0,1.0,0.34266236424446106,4.9903163111494634e-05,0.0,17.14259,1418.0,0.0,1568.0,5.0,1500.0,,,,,,,,,,,,,,,,
9.700119,-9.489855766296387,0.0,0.0,0.0,0.0,-7.056373977093418e-05,0.09580009430646896,1491.0,0.0,0.0,1020.0,0.0,-0.05305800926062762,0.0,5.0,1.8782105445861816,0.0,1500.0,0.0,17.203336999999998,0.0,0.0,0.0,1602.0,1500.0,1.772936021330258e-05,0.0,0.008028514559173916,0.0,0.0,1.0,0.27520912885665894,-4.0021568011331424e-06,0.0,17.242662,1418.0,0.0,1568.0,5.0,1500.0,,,,,,,,,,,,,,,,
9.799976000000001,-9.620038986206055,0.0,0.0,0.0,0.0,9.035534715495035e-05,0.032404206693172455,1492.0,0.0,0.0,1019.0,0.0,-0.05305800926062762,0.0,5.0,1.988418698310852,0.0,1500.0,0.0,17.322944,0.0,0.0,0.0,1603.0,1500.0,-2.2179609584051753e-07,0.0,0.008028514559173916,0.0,0.0,1.0,0.19696339964866638,0.0004181666155243672,0.0,17.342519,1418.0,0.0,1570.0,5.0,1500.0,,,,,,,,,,,,,,,,
9.900045000000002,-9.501455307006836,0.0,0.0,0.0,0.0,1.5698051728134818e-05,-0.020533259958028793,1502.0,0.0,0.0,1019.0,0.0,-0.05305800926062762,0.0,5.0,2.154726028442383,0.0,1501.0,0.0,17.402957,0.0,0.0,0.0,1603.0,1500.0,-8.300231452242047e-05,0.0,0.008028514559173916,0.0,0.0,1.0,0.34536048769950867,0.006131142985445333,0.0,17.442588,1417.0,0.0,1580.0,5.0,1500.0,,,,,,,,,,,,,,,,
10.000041,-9.682795524597168,0.0,0.0,0.0,0.0,0.00019212368221459408,0.035387072712183,1552.0,0.0,0.0,1019.0,0.0,-0.05305800926062762,0.0,5.0,2.6191067695617676,0.0,1500.0,0.0,17.523360999999998,0.0,0.0,0.0,1603.0,1500.0,-0.00017618767670171312,0.0,0.008028514559173916,0.0,0.0,1.0,0.23203907907009125,0.011684576630533324,0.0,17.542583999999998,1417.0,0.0,1637.0,5.0,1501.0,,,,,,,,,,,,,,,,
10.100061,-9.345146179199219,0.0,0.0,0.0,0.0,0.00013853190526705124,0.11408581584692001,1595.0,0.0,0.0,1020.0,0.0,-0.05305800926062762,0.0,5.0,2.8412418365478516,0.0,1500.0,0.0,17.603493,0.0,0.0,0.0,1603.0,1500.0,-0.00010463155832438543,0.0,0.008028514559173916,0.0,0.0,1.0,0.2994922995567322,0.009388807975506225,0.0,17.642604,1418.0,0.0,1685.0,5.0,1500.0,,,,,,,,,,,,,,,,
10.200042,-8.817777633666992,0.0,0.0,0.0,0.0,0.00018616737874556718,0.02064751461148262,1668.0,0.0,0.0,1020.0,0.0,-0.05305800926062762,0.0,5.0,3.2166872024536133,0.0,1500.0,0.0,17.722946,0.0,0.0,0.0,1603.0,1500.0,-2.7594437038111726e-06,0.0,0.008028514559173916,0.0,0.0,1.0,0.38853055238723755,0.007820475530450463,0.0,17.742585,1418.0,0.0,1765.0,5.0,1500.0,,,,,,,,,,,,,,,,
10.300067000000002,-9.951156616210938,0.0,0.0,0.0,0.0,9.217264088427464e-05,-0.14495664834976196,1743.0,0.0,0.0,1020.0,0.0,-0.05305800926062762,0.0,5.0,4.616480827331543,0.0,1500.0,0.0,17.803083,0.0,0.0,0.0,1603.0,1500.0,-7.056980275364047e-05,0.0,0.008028514559173916,0.0,0.0,1.0,0.2104540467262268,0.007394471705173265,0.0,17.84261,1417.0,0.0,1849.0,5.0,1501.0,,,,,,,,,,,,,,,,
10.399983000000002,-9.01941967010498,0.0,0.0,0.0,0.0,-6.877568002122723e-05,-0.007172420620918274,1767.0,0.0,0.0,1019.0,0.0,-0.05305800926062762,0.0,5.0,4.158665657043457,0.0,1500.0,0.0,17.922943999999998,0.0,0.0,0.0,1603.0,1500.0,-6.785131897819694e-05,0.0,0.008028514559173916,0.0,0.0,1.0,0.18077462911605835,0.0001654060517307408,0.0,17.942526,1417.0,0.0,1877.0,5.0,1500.0,,,,,,,,,,,,,,,,
10.500130000000002,-8.8146333694458,0.0,0.0,0.0,0.0,-8.82660481907543e-05,0.1258770227432251,1767.0,0.0,0.0,1020.0,0.0,-0.05305800926062762,0.0,5.0,3.94555401802063,0.0,1500.0,0.0,18.003359,0.0,0.0,0.0,1603.0,1501.0,-2.797826966120178e-05,0.0,0.008028514559173916,0.0,0.0,1.0,0.2671147584915161,4.865847177304082e-05,0.0,18.042673,1417.0,0.0,1876.0,5.0,1500.0,,,,,,,,,,,,,,,,
10.600067,-8.837687492370605,0.0,0.0,0.0,0.0,5.547292705102716e-05,0.04998938366770744,1767.0,0.0,0.0,1020.0,0.0,-0.05305800926062762,0.0,5.0,4.048201560974121,0.0,1500.0,0.0,18.122930999999998,0.0,0.0,0.0,1602.0,1500.0,5.200792430705627e-05,0.0,0.008028514559173916,0.0,0.0,1.0,0.22394469380378723,4.242591247938965e-05,0.0,18.142609999999998,1418.0,0.0,1876.0,5.0,1500.0,,,,,,,,,,,,,,,,
10.700043,-9.03091049194336,0.0,0.0,0.0,0.0,-2.2945412911405628e-06,-0.04601890221238136,1768.0,0.0,0.0,1020.0,0.0,-0.05305800926062762,0.0,5.0,4.19939661026001,0.0,1500.0,0.0,18.20293,0.0,0.0,0.0,1602.0,1500.0,2.2253068643916454e-05,0.0,0.008028514559173916,0.0,0.0,1.0,0.3021904230117798,-0.00015269600814767848,0.0,18.242586,1417.0,0.0,1876.0,5.0,1501.0,,,,,,,,,,,,,,,,
10.800122000000002,-8.955452919006348,0.0,0.0,0.0,0.0,-7.585158720560793e-05,-0.0511225163936615,1767.0,0.0,0.0,1020.0,0.0,-0.05305800926062762,0.0,5.0,4.157634258270264,0.0,1500.0,0.0,18.322937,0.0,0.0,0.0,1603.0,1500.0,-4.1373363239663586e-05,0.0,0.008028514559173916,0.0,0.0,1.0,0.29679417610168457,4.22112942698385e-05,0.0,18.342665,1418.0,0.0,1876.0,5.0,1500.0,,,,,,,,,,,,,,,,
10.900038000000002,-8.881357192993164,0.0,0.0,0.0,0.0,-3.915225535652557e-05,0.044246379286050797,1767.0,0.0,0.0,1020.0,0.0,-0.05305800926062762,0.0,5.0,4.054567337036133,0.0,1500.0,0.0,18.403052,0.0,0.0,0.0,1603.0,1500.0,-1.593682942021587e-05,0.0,0.008028514559173916,0.0,0.0,1.0,0.33726608753204346,2.592919281686292e-05,0.0,18.442581,1418.0,0.0,1877.0,5.0,1500.0,,,,,,,,,,,,,,,,
11.000021,-8.829297065734863,0.0,0.0,0.0,0.0,-5.461164215918128e-05,0.045669667422771454,1767.0,0.0,0.0,1020.0,0.0,-0.05305800926062762,0.0,5.0,4.036338806152344,0.0,1500.0,0.0,18.523556,0.0,0.0,0.0,1604.0,1500.0,1.6352973738424072e-05,0.0,0.008028514559173916,0.0,0.0,1.0,0.39662492275238037,-2.0760544760020125e-05,0.0,18.542564,1418.0,0.0,1876.0,5.0,1500.0,,,,,,,,,,,,,,,,
11.100038000000001,-8.925724029541016,0.0,0.0,0.0,0.0,3.11158469570647e-05,-0.011321764439344406,1767.0,0.0,0.0,1019.0,0.0,-0.05305800926062762,0.0,5.0,4.121423721313477,0.0,1500.0,0.0,18.603504,0.0,0.0,0.0,1603.0,1500.0,1.993123681919023e-05,0.0,0.008028514559173916,0.0,0.0,1.0,0.12411392480134964,-2.054818797799984e-05,0.0,18.642581,1418.0,0.0,1877.0,5.0,1500.0,,,,,,,,,,,,,,,,
11.200054999999999,-8.975273132324219,0.0,0.0,0.0,0.0,-4.8086450485740704e-05,-0.016889607533812523,1767.0,0.0,0.0,1020.0,0.0,-0.05305800926062762,0.0,5.0,4.1669440269470215,0.0,1500.0,0.0,18.722982,0.0,0.0,0.0,1603.0,1500.0,-1.9546487332512302e-05,0.0,0.008028514559173916,0.0,0.0,1.0,0.33726608753204346,2.2325780752032695e-06,0.0,18.742597999999997,1418.0,0.0,1877.0,5.0,1500.0,,,,,,,,,,,,,,,,
11.300039000000002,-9.144192695617676,0.0,0.0,0.0,0.0,-0.00027693201786980587,-0.00931239128112793,1767.0,0.0,0.0,1020.0,0.0,-0.05305800926062762,0.0,5.0,4.046029567718506,0.0,1500.0,0.0,18.802948999999998,0.0,0.0,0.0,1603.0,1500.0,0.00011303321876345666,0.0,0.008028514559173916,0.0,0.0,1.0,0.3210773169994354,-0.011166861235513822,0.0,18.842582,1418.0,0.0,1876.0,5.0,1500.0,,,,,,,,,,,,,,,,
11.400123,-9.234153747558594,0.0,0.0,0.0,0.0,-0.000297880874727749,0.007705628871917725,1681.0,0.0,0.0,1019.0,0.0,-0.05305800926062762,0.0,5.0,3.449680805206299,0.0,1500.0,0.0,18.923023,0.0,0.0,0.0,1603.0,1500.0,0.00010064726842621066,0.0,0.008028514559173916,0.0,0.0,1.0,0.3156810700893402,-0.012219969797585528,0.0,18.942666,1418.0,0.0,1780.0,5.0,1500.0,,,,,,,,,,,,,,,,
11.500046000000001,-9.930209159851074,0.0,0.0,0.0,0.0,-0.0003369545063648366,0.018368147313594818,1585.0,0.0,0.0,1019.0,0.0,-0.05305800926062762,0.0,5.0,2.911891460418701,0.0,1500.0,0.0,19.003559,0.0,0.0,0.0,1603.0,1500.0,0.00013130499242759952,0.0,0.008028514559173916,0.0,0.0,1.0,0.3210773169994354,-0.015398286111026968,0.0,19.042589,1418.0,0.0,1674.0,5.0,1500.0,,,,,,,,,,,,,,,,
11.60002,-8.972702026367188,0.0,0.0,0.0,0.0,-0.0002522178374408636,0.11574972420930862,1514.0,0.0,0.0,1020.0,0.0,-0.05305800926062762,0.0,5.0,1.8956109285354614,0.0,1500.0,0.0,19.122926,0.0,0.0,0.0,1602.0,1500.0,5.691655492995465e-05,0.0,0.008028514559173916,0.0,0.0,1.0,0.24822784960269928,-0.005782186699158189,0.0,19.142563,1418.0,0.0,1593.0,5.0,1500.0,,,,,,,,,,,,,,,,
11.700061000000002,-9.454183578491211,0.0,0.0,0.0,0.0,8.786437152280086e-05,0.026663539931178093,1498.0,0.0,0.0,1019.0,0.0,-0.05305800926062762,0.0,5.0,1.9367454051971436,0.0,1500.0,0.0,19.203089,0.0,0.0,0.0,1602.0,1500.0,5.799341299176454e-05,0.0,0.008028514559173916,0.0,0.0,1.0,0.13220831751823425,-0.0018956619907563204,0.0,19.242604,1418.0,0.0,1578.0,5.0,1500.0,,,,,,,,,,,,,,,,
11.800063999999999,-9.751823425292969,0.0,0.0,0.0,0.0,-0.00011642803394891339,-0.03767607361078262,1492.0,0.0,0.0,1020.0,0.0,-0.05305800926062762,0.0,5.0,2.062908411026001,0.0,1500.0,0.0,19.32291,0.0,0.0,0.0,1602.0,1500.0,1.7008957380236127e-05,0.0,0.008028514559173916,0.0,0.0,1.0,0.3048885464668274,-0.00043299185984895124,0.0,19.342606999999997,1418.0,0.0,1568.0,5.0,1500.0,,,,,,,,,,,,,,,,
11.900064,-9.637038230895996,0.0,0.0,0.0,0.0,-4.495253861239862e-05,-0.009993528015911579,1491.0,0.0,0.0,1019.0,0.0,-0.05305800926062762,0.0,5.0,2.0181949138641357,0.0,1500.0,0.0,19.403112999999998,0.0,0.0,0.0,1603.0,1500.0,-3.3371361860694806e-05,0.0,0.008028514559173916,0.0,0.0,1.0,0.3237754702568054,2.0184600007704642e-05,0.0,19.442607,1417.0,0.0,1568.0,5.0,1500.0,,,,,,,,,,,,,,,,
12.000012000000002,-9.518813133239746,0.0,0.0,0.0,0.0,-7.812671740248421e-05,0.12277917563915253,1490.0,0.0,0.0,1020.0,0.0,-0.05305800926062762,0.0,5.0,1.866551160812378,0.0,1500.0,0.0,19.523367,0.0,0.0,0.0,1603.0,1501.0,-7.6164940194525615e-06,0.0,0.008028514559173916,0.0,0.0,1.0,0.38043615221977234,1.199657640397305e-05,0.0,19.542555,1417.0,0.0,1568.0,5.0,1500.0,,,,,,,,,,,,,,,,
12.100513,-9.500320434570312,0.0,0.0,0.0,0.0,-1.5816885376445955e-05,0.04819978028535843,1491.0,0.0,0.0,1020.0,0.0,-0.05305800926062762,0.0,5.0,1.939068078994751,0.0,1500.0,0.0,19.603344,0.0,0.0,0.0,1602.0,1500.0,1.449043114017577e-05,0.0,0.008028514559173916,0.0,0.0,1.0,0.22394469380378723,-2.3091162220544617e-05,0.0,19.643055999999998,1418.0,0.0,1568.0,5.0,1500.0,,,,,,,,,,,,,,,,
12.200030000000002,-9.690604209899902,0.0,0.0,0.0,0.0,4.960663368048851e-05,-0.007898529060184956,1490.0,0.0,0.0,1020.0,0.0,-0.05305800926062762,0.0,5.0,2.002483606338501,0.0,1500.0,0.0,19.722929,0.0,0.0,0.0,1602.0,1500.0,1.1922518208040817e-05,0.0,0.008028514559173916,0.0,0.0,1.0,0.3696436583995819,-0.00017336076631462792,0.0,19.742573,1418.0,0.0,1568.0,5.0,1500.0,,,,,,,,,,,,,,,,
12.300049000000001,-9.775206565856934,0.0,0.0,0.0,0.0,-0.0001713892728924262,-0.014522929675877094,1488.0,0.0,0.0,1019.0,0.0,-0.05305800926062762,0.0,5.0,2.033531427383423,0.0,1500.0,0.0,19.803075,0.0,0.0,0.0,1603.0,1500.0,-1.6144840116442337e-06,0.0,0.008028514559173916,0.0,0.0,1.0,0.3129829466342926,-0.0014733755378464118,0.0,19.842592,1417.0,0.0,1566.0,5.0,1501.0,,,,,,,,,,,,,,,,
12.400078,-9.875597953796387,0.0,0.0,0.0,0.0,-0.00021282072210715934,0.06405170261859894,1462.0,0.0,0.0,1020.0,0.0,-0.05305800926062762,0.0,5.0,1.7519869804382324,0.0,1501.0,0.0,19.922947,0.0,0.0,0.0,1602.0,1500.0,8.673299131690894e-05,0.0,0.008028514559173916,0.0,0.0,1.0,0.21315217018127441,-0.009488943872790504,0.0,19.942621,1417.0,0.0,1536.0,5.0,1500.0,,,,,,,,,,,,,,,,
12.500074999999999,-9.78719711303711,0.0,0.0,0.0,0.0,-0.00029519830559115144,0.0701480358839035,1416.0,0.0,0.0,1020.0,0.0,-0.05305800926062762,0.0,5.0,1.2292473316192627,0.0,1500.0,0.0,20.003318,0.0,0.0,0.0,1602.0,1500.0,0.00014148901536319123,0.0,0.008028514559173916,0.0,0.0,1.0,0.22124655544757843,-0.010704613452276327,0.0,20.042617999999997,1418.0,0.0,1487.0,5.0,1500.0,,,,,,,,,,,,,,,,
12.600065,-10.28602409362793,0.0,0.0,0.0,0.0,-9.950546086534265e-05,-0.017702892422676086,1353.0,0.0,0.0,1020.0,0.0,-0.05305800926062762,0.0,5.0,1.0215328931808472,0.0,1500.0,0.0,20.122944999999998,0.0,0.0,0.0,1602.0,1500.0,0.00011693349652726818,0.0,0.008028514559173916,0.0,0.0,1.0,0.29139789938926697,-0.00849413773264552,0.0,20.142608,1418.0,0.0,1419.0,5.0,1500.0,,,,,,,,,,,,,,,,
12.700065000000002,-10.55053424835205,0.0,0.0,0.0,0.0,-0.00029159055455193475,0.02063295617699623,1283.0,0.0,0.0,1020.0,0.0,-0.05305800926062762,0.0,5.0,0.564115583896637,0.0,1500.0,0.0,20.203135,0.0,0.0,0.0,1603.0,1500.0,0.00010334687243110899,0.0,0.008028514559173916,0.0,0.0,1.0,0.32917171716690063,-0.012176631012033692,0.0,20.242608,1417.0,0.0,1343.0,5.0,1500.0,,,,,,,,,,,,,,,,
12.799994000000002,-9.450575828552246,0.0,0.0,0.0,0.0,-0.00014203973900145402,0.055359430611133575,1198.0,0.0,0.0,1020.0,0.0,-0.05305800926062762,0.0,5.0,-0.4612363576889038,0.0,1500.0,0.0,20.322938999999998,0.0,0.0,0.0,1603.0,1500.0,8.198608425584288e-06,0.0,0.008028514559173916,0.0,0.0,1.0,0.2104540467262268,-0.0020828673911523544,0.0,20.342537,1417.0,0.0,1250.0,5.0,1500.0,,,,,,,,,,,,,,,,
12.900009,-9.685179710388184,0.0,0.0,0.0,0.0,3.0226595947936827e-05,0.15711915493011475,1194.0,0.0,0.0,1020.0,0.0,-0.05305800926062762,0.0,5.0,-0.5681008696556091,0.0,1500.0,0.0,20.403102,0.0,0.0,0.0,1602.0,1500.0,-2.0315153255295242e-05,0.0,0.008028514559173916,0.0,0.0,1.0,0.3156810700893402,-0.00020070333914729883,0.0,20.442552,1418.0,0.0,1246.0,5.0,1500.0,,,,,,,,,,,,,,,,
13.000092000000002,-9.724701881408691,0.0,0.0,0.0,0.0,-6.106093276627588e-05,0.05560547858476639,1193.0,0.0,0.0,1019.0,0.0,-0.05305800926062762,0.0,5.0,-0.4567912220954895,0.0,1500.0,0.0,20.523342,0.0,0.0,0.0,1602.0,1500.0,4.978112729805443e-05,0.0,0.008028514559173916,0.0,0.0,1.0,0.23743534088134766,-8.530537019996543e-05,0.0,20.542635,1417.0,0.0,1245.0,5.0,1500.0,,,,,,,,,,,,,,,,
13.100064,-9.930469512939453,0.0,0.0,0.0,0.0,6.823014161482317e-05,0.06293095648288727,1193.0,0.0,0.0,1019.0,0.0,-0.05305800926062762,0.0,5.0,-0.43860650062561035,0.0,1500.0,0.0,20.603572,0.0,0.0,0.0,1602.0,1500.0,-3.118158277459043e-05,0.0,0.008028514559173916,0.0,0.0,1.0,0.18347275257110596,5.328814220469895e-06,0.0,20.642606999999998,1418.0,0.0,1245.0,5.0,1500.0,,,,,,,,,,,,,,,,
13.200059,-9.858482360839844,0.0,0.0,0.0,0.0,-0.00017560364729517902,0.07775717228651047,1194.0,0.0,0.0,1020.0,0.0,-0.05305800926062762,0.0,5.0,-0.46154290437698364,0.0,1500.0,0.0,20.722981,0.0,0.0,0.0,1602.0,1500.0,1.4826270399070198e-05,0.0,0.008028514559173916,0.0,0.0,1.0,0.3129829466342926,6.26739137311852e-05,0.0,20.742601999999998,1418.0,0.0,1244.0,5.0,1500.0,,,,,,,,,,,,,,,,
13.300112000000002,-9.673741340637207,0.0,0.0,0.0,0.0,6.074333731492831e-05,0.07774192094802856,1193.0,0.0,0.0,1019.0,0.0,-0.05305800926062762,0.0,5.0,-0.49232912063598633,0.0,1500.0,0.0,20.803092,0.0,0.0,0.0,1602.0,1500.0,-2.672008290346673e-05,0.0,0.008028514559173916,0.0,0.0,1.0,0.3480586111545563,-7.888970232672599e-05,0.0,20.842655,1418.0,0.0,1245.0,5.0,1500.0,,,,,,,,,,,,,,,,
13.400024000000002,-9.805257797241211,0.0,0.0,0.0,0.0,-3.033490674523057e-05,0.11264539510011673,1193.0,0.0,0.0,1020.0,0.0,-0.05305800926062762,0.0,5.0,-0.49924391508102417,0.0,1500.0,0.0,20.922947,0.0,0.0,0.0,1603.0,1500.0,1.81322275340261e-05,0.0,0.008028514559173916,0.0,0.0,1.0,0.27520912885665894,2.9137715544078297e-05,0.0,20.942567,1418.0,0.0,1244.0,5.0,1500.0,,,,,,,,,,,,,,,,
13.500040000000002,-9.733518600463867,0.0,0.0,0.0,0.0,-9.05427632155498e-06,0.03256557136774063,1193.0,0.0,0.0,1019.0,0.0,-0.05305800926062762,0.0,5.0,-0.42589476704597473,0.0,1500.0,0.0,21.003362,0.0,0.0,0.0,1603.0,1500.0,6.895980451614832e-06,0.0,0.008028514559173916,0.0,0.0,1.0,0.39122867584228516,2.6991092541312303e-05,0.0,21.042583,1418.0,0.0,1245.0,5.0,1500.0,,,,,,,,,,,,,,,,
13.600065,-7.699326515197754,0.0,0.0,0.0,0.0,0.0006701026949431639,0.12598437070846558,1234.0,0.0,0.0,1019.0,0.0,-0.05305800926062762,0.0,5.0,-1.016752004623413,0.0,1500.0,0.0,21.122944,0.0,0.0,0.0,1602.0,1500.0,-0.00028035180019048204,0.0,0.008028514559173916,0.0,0.0,1.0,0.2590203583240509,0.02616536837591977,0.0,21.142608,1418.0,0.0,1290.0,5.0,1500.0,,,,,,,,,,,,,,,,
13.700066,-10.864286422729492,0.0,0.0,0.0,0.0,-0.0001715984051591801,-0.0949782133102417,1399.0,0.0,0.0,1019.0,0.0,-0.05305800926062762,0.0,5.0,1.9894893169403076,0.0,1500.0,0.0,21.203086,0.0,0.0,0.0,1602.0,1500.0,-0.00011380383524367863,0.0,0.008028514559173916,0.0,0.0,1.0,0.27251100540161133,0.009833614134198303,0.0,21.242608999999998,1417.0,0.0,1469.0,5.0,1500.0,,,,,,,,,,,,,,,,
13.800029000000002,-9.611604690551758,0.0,0.0,0.0,0.0,-4.523556449680084e-05,-0.013261853717267513,1476.0,0.0,0.0,1019.0,0.0,-0.05305800926062762,0.0,5.0,1.9284487962722778,0.0,1500.0,0.0,21.32294,0.0,0.0,0.0,1603.0,1500.0,-0.00014579940595587997,0.0,0.008028514559173916,0.0,0.0,1.0,0.39122867584228516,0.0033037290944665306,0.0,21.342572,1417.0,0.0,1554.0,5.0,1500.0,,,,,,,,,,,,,,,,
13.900129,-9.54245662689209,0.0,0.0,0.0,0.0,7.023386799870475e-05,0.23241327702999115,1490.0,0.0,0.0,1019.0,0.0,-0.05305800926062762,0.0,5.0,1.7525086402893066,0.0,1500.0,0.0,21.403,0.0,0.0,0.0,1602.0,1500.0,2.9555923186327464e-05,0.0,0.008028514559173916,0.0,0.0,1.0,0.29679417610168457,0.000223798004243911,0.0,21.442671999999998,1418.0,0.0,1568.0,5.0,1500.0,,,,,,,,,,,,,,,,
14.000043999999999,-9.462934494018555,0.0,0.0,0.0,0.0,-5.9790815098872134e-05,-0.0583660788834095,1491.0,0.0,0.0,1020.0,0.0,-0.05305800926062762,0.0,5.0,2.028731346130371,0.0,1500.0,0.0,21.523587,0.0,0.0,0.0,1602.0,1500.0,5.318239964136658e-05,0.0,0.008028514559173916,0.0,0.0,1.0,0.3507567346096039,-4.826856753196414e-05,0.0,21.542586999999997,1418.0,0.0,1568.0,5.0,1500.0,,,,,,,,,,,,,,,,
14.100135000000002,-9.883929252624512,0.0,0.0,0.0,0.0,0.00016604224229412344,-0.019654005765914917,1490.0,0.0,0.0,1020.0,0.0,-0.05305800926062762,0.0,5.0,2.098142147064209,0.0,1500.0,0.0,21.603346,0.0,0.0,0.0,1603.0,1500.0,-1.4650326054409004e-05,0.0,0.008028514559173916,0.0,0.0,1.0,0.402021199464798,5.7954767572503897e-05,0.0,21.642678,1417.0,0.0,1568.0,5.0,1500.0,,,,,,,,,,,,,,,,
14.200049,-9.583901405334473,0.0,0.0,0.0,0.0,-0.00034626022579492695,0.028162553906440735,1491.0,0.0,0.0,1019.0,0.0,-0.05305800926062762,0.0,5.0,1.9405914545059204,0.0,1500.0,0.0,21.722915,0.0,0.0,0.0,1602.0,1500.0,-2.7646603782494595e-05,0.0,0.008028514559173916,0.0,0.0,1.0,0.28060540556907654,9.018226769152772e-05,0.0,21.742592,1418.0,0.0,1568.0,5.0,1500.0,,,,,,,,,,,,,,,,
14.300065,-9.414620399475098,0.0,0.0,0.0,0.0,0.00017612457616856075,0.09529243409633636,1491.0,0.0,0.0,1019.0,0.0,-0.05305800926062762,0.0,5.0,1.8541889190673828,0.0,1500.0,0.0,21.802903,0.0,0.0,0.0,1602.0,1500.0,-2.815746290309735e-05,0.0,0.008028514559173916,0.0,0.0,1.0,0.23203907907009125,1.5282914689979113e-06,0.0,21.842608,1418.0,0.0,1568.0,5.0,1500.0,,,,,,,,,,,,,,,,
14.400058000000001,-9.70320987701416,0.0,0.0,0.0,0.0,-0.00010699054623649437,0.09597148001194,1491.0,0.0,0.0,1020.0,0.0,-0.05305800926062762,0.0,5.0,1.941565990447998,0.0,1500.0,0.0,21.922939,0.0,0.0,0.0,1602.0,1501.0,4.594025619924516e-05,0.0,0.008028514559173916,0.0,0.0,1.0,0.2698128819465637,-1.5950804351534205e-05,0.0,21.942601,1417.0,0.0,1568.0,5.0,1500.0,,,,,,,,,,,,,,,,
14.499982,-9.524499893188477,0.0,0.0,0.0,0.0,5.037741677082506e-05,-0.06933622062206268,1490.0,0.0,0.0,1019.0,0.0,-0.05305800926062762,0.0,5.0,2.0465612411499023,0.0,1500.0,0.0,22.003377,0.0,0.0,0.0,1603.0,1500.0,-2.6497012278346473e-06,0.0,0.008028514559173916,0.0,0.0,1.0,0.4047193229198456,-6.385275242185e-06,0.0,22.042524999999998,1417.0,0.0,1569.0,5.0,1500.0,,,,,,,,,,,,,,,,
14.600035000000002,-9.793388366699219,0.0,0.0,0.0,0.0,-5.0860447938631084e-05,0.07205051183700562,1491.0,0.0,0.0,1019.0,0.0,-0.05305800926062762,0.0,5.0,1.9865533113479614,0.0,1500.0,0.0,22.122940999999997,0.0,0.0,0.0,1602.0,1500.0,-2.1261449942191868e-05,0.0,0.008028514559173916,0.0,0.0,1.0,0.4667762815952301,2.5229619295865368e-05,0.0,22.142578,1418.0,0.0,1568.0,5.0,1500.0,,,,,,,,,,,,,,,,
14.700018,-9.410785675048828,0.0,0.0,0.0,0.0,-0.00015293096904585413,0.034233953803777695,1491.0,0.0,0.0,1020.0,0.0,-0.05305800926062762,0.0,5.0,1.9088982343673706,0.0,1500.0,0.0,22.202963999999998,0.0,0.0,0.0,1602.0,1500.0,-2.483252389810529e-06,0.0,0.008028514559173916,0.0,0.0,1.0,0.3561530113220215,2.4962080024796725e-05,0.0,22.242561,1418.0,0.0,1568.0,5.0,1500.0,,,,,,,,,,,,,,,,
14.800055,-9.63023567199707,0.0,0.0,0.0,0.0,0.00014155078301542696,0.09984428435564041,1491.0,0.0,0.0,1019.0,0.0,-0.05305800926062762,0.0,5.0,1.9270750284194946,0.0,1500.0,0.0,22.32304,0.0,0.0,0.0,1602.0,1500.0,3.5226602567488436e-06,0.0,0.008028514559173916,0.0,0.0,1.0,0.4586819112300873,-5.5910290792792066e-05,0.0,22.342598,1418.0,0.0,1568.0,5.0,1500.0,,,,,,,,,,,,,,,,
14.900081,-9.627241134643555,0.0,0.0,0.0,0.0,-0.00018081121303659166,0.023256484419107437,1490.0,0.0,0.0,1019.0,0.0,-0.05305800926062762,0.0,5.0,1.9946315288543701,0.0,1500.0,0.0,22.403084999999997,0.0,0.0,0.0,1603.0,1500.0,1.2821223325255949e-05,0.0,0.008028514559173916,0.0,0.0,1.0,0.4074174463748932,4.6426656142294834e-05,0.0,22.442624,1417.0,0.0,1569.0,5.0,1501.0,,,,,,,,,,,,,,,,
15.000038,-9.578965187072754,0.0,0.0,0.0,0.0,9.51156338209497e-05,0.016833949834108353,1491.0,0.0,0.0,1020.0,0.0,-0.05305800926062762,0.0,5.0,2.004852771759033,0.0,1500.0,0.0,22.52336,0.0,0.0,0.0,1602.0,1500.0,-1.5163051411478157e-05,0.0,0.008028514559173916,0.0,0.0,1.0,0.38583242893218994,-1.1136528897002554e-05,0.0,22.542581,1418.0,0.0,1568.0,5.0,1500.0,,,,,,,,,,,,,,,,
15.100121000000001,-9.661895751953125,0.0,0.0,0.0,0.0,-0.00015357141832631196,0.0772823914885521,1491.0,0.0,0.0,1068.0,0.0,-0.05305800926062762,0.0,5.0,1.936423420906067,0.0,1500.0,0.0,22.60354,0.0,0.0,0.0,1602.0,1500.0,-1.6335145440248338e-05,0.0,0.008028514559173916,0.0,0.0,1.0,0.326473593711853,1.5765532888202348e-05,0.0,22.642664,1418.0,0.0,1568.0,5.0,1500.0,,,,,,,,,,,,,,,,
15.199978999999999,-9.44921875,0.0,0.0,0.0,0.0,1.572048618642958e-05,0.0220014750957489,1492.0,0.0,0.0,1068.0,0.0,-0.05305800926062762,0.0,5.0,1.944753646850586,0.0,1500.0,0.0,22.722970999999998,0.0,0.0,0.0,1602.0,1500.0,-1.2723600973178853e-05,0.0,0.008028514559173916,0.0,0.0,1.0,0.38313430547714233,8.56223804840813e-06,0.0,22.742521999999997,1418.0,0.0,1569.0,5.0,1500.0,,,,,,,,,,,,,,,,
15.300061,-9.707275390625,0.0,0.0,0.0,0.0,-8.044596677043439e-07,0.06920937448740005,1492.0,0.0,0.0,1067.0,0.0,-0.05305800926062762,0.0,5.0,1.9631621837615967,0.0,1500.0,0.0,22.802993,0.0,0.0,0.0,1602.0,1500.0,2.5391025892113846e-06,0.0,0.008028514559173916,0.0,0.0,1.0,0.44788938760757446,-2.735201678160483e-05,0.0,22.842603999999998,1418.0,0.0,1570.0,5.0,1500.0,,,,,,,,,,,,,,,,
15.400134999999999,-9.533535957336426,0.0,0.0,0.0,0.0,-0.00011265980079640105,-0.008591586723923683,1492.0,0.0,0.0,1067.0,0.0,-0.05305800926062762,0.0,5.0,1.9879262447357178,0.0,1500.0,0.0,22.922919,0.0,0.0,0.0,1602.0,1500.0,4.2648750459898686e-06,0.0,0.008028514559173916,0.0,0.0,1.0,0.5126444697380066,1.4998574719093884e-05,0.0,22.942677999999997,1418.0,0.0,1570.0,5.0,1500.0,,,,,,,,,,,,,,,,
15.500048,-9.647378921508789,0.0,0.0,0.0,0.0,6.238640156467323e-05,0.06626122444868088,1491.0,0.0,0.0,1067.0,0.0,-0.05305800926062762,0.0,5.0,1.9449965953826904,0.0,1500.0,0.0,23.003376,0.0,0.0,0.0,1603.0,1501.0,-1.8752480417667388e-05,0.0,0.008028514559173916,0.0,0.0,1.0,0.5666070580482483,-5.313962935187585e-07,0.0,23.042590999999998,1417.0,0.0,1570.0,5.0,1500.0,,,,,,,,,,,,,,,,
15.600114000000001,-9.5636625289917,0.0,0.0,0.0,0.0,-0.00014334041946573045,0.04226359352469444,1492.0,0.0,0.0,1068.0,0.0,-0.05305800926062762,0.0,5.0,1.9487216472625732,0.0,1500.0,0.0,23.122982,0.0,0.0,0.0,1602.0,1500.0,8.647914252086543e-06,0.0,0.008028514559173916,0.0,0.0,1.0,0.3615492582321167,1.6035591629296397e-05,0.0,23.142657,1418.0,0.0,1569.0,5.0,1500.0,,,,,,,,,,,,,,,,
15.700045,-9.56404972076416,0.0,0.0,0.0,0.0,8.507702494243715e-05,0.03457598015666008,1492.0,0.0,0.0,1067.0,0.0,-0.05305800926062762,0.0,5.0,1.9595978260040283,0.0,1500.0,0.0,23.202994999999998,0.0,0.0,0.0,1603.0,1500.0,-2.375723085386562e-06,0.0,0.008028514559173916,0.0,0.0,1.0,0.37773802876472473,-1.5051745695783248e-05,0.0,23.242587999999998,1417.0,0.0,1569.0,5.0,1500.0,,,,,,,,,,,,,,,,
15.800018999999999,-9.677597999572754,0.0,0.0,0.0,0.0,-0.00010055156107453595,0.05929241701960564,1492.0,0.0,0.0,1067.0,0.0,-0.05305800926062762,0.0,5.0,1.9689394235610962,0.0,1500.0,0.0,23.322934999999998,0.0,0.0,0.0,1602.0,1500.0,-4.727015946807029e-07,0.0,0.008028514559173916,0.0,0.0,1.0,0.5989845991134644,1.0505530676885982e-05,0.0,23.342561999999997,1418.0,0.0,1570.0,5.0,1500.0,,,,,,,,,,,,,,,,
15.900048000000002,-9.522167205810547,0.0,0.0,0.0,0.0,-5.687987530686302e-06,0.010701743885874748,1492.0,0.0,0.0,1067.0,0.0,-0.05305800926062762,0.0,5.0,1.9712650775909424,0.0,1500.0,0.0,23.40309,0.0,0.0,0.0,1602.0,1500.0,-8.973116877446303e-06,0.0,0.008028514559173916,0.0,0.0,1.0,0.43439874053001404,2.5326489870596176e-06,0.0,23.442591,1418.0,0.0,1570.0,5.0,1500.0,,,,,,,,,,,,,,,,
16.000031,-9.660572052001953,0.0,0.0,0.0,0.0,-2.0601255331325254e-05,0.07713790237903595,1492.0,0.0,0.0,1067.0,0.0,-0.05305800926062762,0.0,5.0,1.9513580799102783,0.0,1500.0,0.0,23.523376,0.0,0.0,0.0,1603.0,1500.0,2.0307276038288646e-07,0.0,0.008028514559173916,0.0,0.0,1.0,0.5531163811683655,1.463850486359626e-05,0.0,23.542574,1417.0,0.0,1569.0,5.0,1500.0,,,,,,,,,,,,,,,,
16.100048,-9.52078628540039,0.0,0.0,0.0,0.0,-8.180371323078624e-05,0.026302123442292213,1492.0,0.0,0.0,1067.0,0.0,-0.05305800926062762,0.0,5.0,1.964521050453186,0.0,1500.0,0.0,23.603371,0.0,0.0,0.0,1603.0,1500.0,1.4685089661182923e-05,0.0,0.008028514559173916,0.0,0.0,1.0,0.34536048769950867,-2.351076471454575e-06,0.0,23.642591,1417.0,0.0,1569.0,5.0,1500.0,,,,,,,,,,,,,,,,
16.200063,-9.641469955444336,0.0,0.0,0.0,0.0,4.985003480324925e-05,0.04465126991271973,1492.0,0.0,0.0,1067.0,0.0,-0.05305800926062762,0.0,5.0,1.966249704360962,0.0,1500.0,0.0,23.722925999999998,0.0,0.0,0.0,1602.0,1500.0,-1.7791897929360586e-05,0.0,0.008028514559173916,0.0,0.0,1.0,0.3534548878669739,-1.7187607107428633e-05,0.0,23.742606,1418.0,0.0,1570.0,5.0,1500.0,,,,,,,,,,,,,,,,
16.300048,-9.610960960388184,0.0,0.0,0.0,0.0,-0.00013314127158266364,0.02597411908209324,1492.0,0.0,0.0,1068.0,0.0,-0.05305800926062762,0.0,5.0,1.973180890083313,0.0,1500.0,0.0,23.802937,0.0,0.0,0.0,1602.0,1500.0,1.008718715596105e-06,0.0,0.008028514559173916,0.0,0.0,1.0,0.34536048769950867,3.1296950627743643e-06,0.0,23.842591,1418.0,0.0,1569.0,5.0,1500.0,,,,,,,,,,,,,,,,
16.400029,-9.557849884033203,0.0,0.0,0.0,0.0,2.978340085216151e-05,0.020343702286481857,1492.0,0.0,0.0,1067.0,0.0,-0.05305800926062762,0.0,5.0,1.9780229330062866,0.0,1500.0,0.0,23.922943,0.0,0.0,0.0,1602.0,1500.0,-1.4630172326036433e-05,0.0,0.008028514559173916,0.0,0.0,1.0,0.5018519759178162,-1.5518535425163414e-05,0.0,23.942572,1418.0,0.0,1570.0,5.0,1500.0,,,,,,,,,,,,,,,,
16.500113,-9.632440567016602,0.0,0.0,0.0,0.0,-9.05521909098384e-05,0.05955253168940544,1492.0,0.0,0.0,1067.0,0.0,-0.05305800926062762,0.0,5.0,1.9546207189559937,0.0,1500.0,0.0,24.003349,0.0,0.0,0.0,1602.0,1500.0,-6.7923728343544e-06,0.0,0.008028514559173916,0.0,0.0,1.0,0.48566317558288574,-2.4208028044076462e-06,0.0,24.042655999999997,1418.0,0.0,1570.0,5.0,1500.0,,,,,,,,,,,,,,,,
16.60005,-9.539590835571289,0.0,0.0,0.0,0.0,-1.8410488775517373e-05,0.01851406693458557,1492.0,0.0,0.0,1068.0,0.0,-0.05305800926062762,0.0,5.0,1.9776551723480225,0.0,1500.0,0.0,24.122939,0.0,0.0,0.0,1602.0,1500.0,-7.810281901019485e-06,0.0,0.008028514559173916,0.0,0.0,1.0,0.48566317558288574,-1.038750468126444e-05,0.0,24.142592999999998,1418.0,0.0,1569.0,5.0,1500.0,,,,,,,,,,,,,,,,
16.700091,-9.645694732666016,0.0,0.0,0.0,0.0,-2.8114156464289708e-05,0.04750130698084831,1492.0,0.0,0.0,1068.0,0.0,-0.05305800926062762,0.0,5.0,1.955894947052002,0.0,1500.0,0.0,24.202996,0.0,0.0,0.0,1602.0,1500.0,-1.3598543830759221e-05,0.0,0.008028514559173916,0.0,0.0,1.0,0.4586819112300873,-3.3877533039994244e-06,0.0,24.242634,1418.0,0.0,1569.0,5.0,1500.0,,,,,,,,,,,,,,,,
16.800044,-9.556966781616211,0.0,0.0,0.0,0.0,-7.353363414562242e-05,0.023446563631296158,1492.0,0.0,0.0,1067.0,0.0,-0.05305800926062762,0.0,5.0,1.9686654806137085,0.0,1500.0,0.0,24.322957,0.0,0.0,0.0,1602.0,1500.0,-2.08135552220869e-06,0.0,0.008028514559173916,0.0,0.0,1.0,0.3048885464668274,1.1480007839199823e-05,0.0,24.342586999999998,1418.0,0.0,1570.0,5.0,1500.0,,,,,,,,,,,,,,,,
16.90005,-9.59902572631836,0.0,0.0,0.0,0.0,2.6938657087323902e-05,0.056976571679115295,1492.0,0.0,0.0,1067.0,0.0,-0.05305800926062762,0.0,5.0,1.951235055923462,0.0,1500.0,0.0,24.402904,0.0,0.0,0.0,1602.0,1500.0,1.5769615597946136e-06,0.0,0.008028514559173916,0.0,0.0,1.0,0.3723417818546295,-1.2917148082811896e-05,0.0,24.442593,1418.0,0.0,1570.0,5.0,1500.0,,,,,,,,,,,,,,,,
17.000029,-9.603310585021973,0.0,0.0,0.0,0.0,-9.809298095051955e-05,0.047796767204999924,1492.0,0.0,0.0,1067.0,0.0,-0.05305800926062762,0.0,5.0,1.9540064334869385,0.0,1500.0,0.0,24.52394,0.0,0.0,0.0,1603.0,1500.0,-3.684350801332846e-06,0.0,0.008028514559173916,0.0,0.0,1.0,0.4532856345176697,-1.8454482989005333e-06,0.0,24.542572,1417.0,0.0,1570.0,5.0,1500.0,,,,,,,,,,,,,,,,
17.100059,-9.593939781188965,0.0,0.0,0.0,0.0,1.959731560844417e-05,0.027868308126926422,1493.0,0.0,0.0,1067.0,0.0,-0.05305800926062762,0.0,5.0,1.9736422300338745,0.0,1500.0,0.0,24.603544,0.0,0.0,0.0,1602.0,1500.0,-8.295688278873656e-06,0.0,0.008028514559173916,0.0,0.0,1.0,0.3210773169994354,0.0003718603169033827,0.0,24.642602,1418.0,0.0,1570.0,5.0,1500.0,,,,,,,,,,,,,,,,
17.200045,-9.63387680053711,0.0,0.0,0.0,0.0,-6.560475632047968e-05,0.05574074760079384,1494.0,0.0,0.0,1067.0,0.0,-0.05305800926062762,0.0,5.0,1.9609801769256592,0.0,1500.0,0.0,24.722987,0.0,0.0,0.0,1603.0,1500.0,-1.55963464123351e-05,0.0,0.008028514559173916,0.0,0.0,1.0,0.5261351466178894,5.523819371788608e-05,0.0,24.742587999999998,1417.0,0.0,1572.0,5.0,1500.0,,,,,,,,,,,,,,,,
17.300022000000002,-9.604363441467285,0.0,0.0,0.0,0.0,-4.767862143453167e-05,0.027240535244345665,1496.0,0.0,0.0,1067.0,0.0,-0.05305800926062762,0.0,5.0,2.0316760540008545,0.0,1500.0,0.0,24.802926,0.0,0.0,0.0,1603.0,1500.0,1.6854369353722736e-06,0.0,0.008028514559173916,0.0,0.0,1.0,0.43979498744010925,0.00021391069360408534,0.0,24.842565,1417.0,0.0,1573.0,5.0,1500.0,,,,,,,,,,,,,,,,
17.40006,-9.59239387512207,0.0,0.0,0.0,0.0,1.4134634224568004e-05,0.045040447264909744,1498.0,0.0,0.0,1067.0,0.0,-0.05305800926062762,0.0,5.0,2.0263664722442627,0.0,1500.0,0.0,24.922969,0.0,0.0,0.0,1603.0,1500.0,-1.1713452991698881e-05,0.0,0.008028514559173916,0.0,0.0,1.0,0.5180407166481018,0.0007169343437010585,0.0,24.942603,1418.0,0.0,1577.0,5.0,1500.0,,,,,,,,,,,,,,,,
17.500158,-9.495224952697754,0.0,0.0,0.0,0.0,-5.798491181225946e-05,0.030125338584184647,1501.0,0.0,0.0,1067.0,0.0,-0.05305800926062762,0.0,5.0,2.035904884338379,0.0,1500.0,0.0,25.003369,0.0,0.0,0.0,1603.0,1500.0,-4.879294988253037e-07,0.0,0.008028514559173916,0.0,0.0,1.0,0.4074174463748932,0.00031113497754449074,0.0,25.042700999999997,1418.0,0.0,1579.0,5.0,1500.0,,,,,,,,,,,,,,,,
17.600001,-9.494372367858887,0.0,0.0,0.0,0.0,2.3415080728923684e-05,0.04436302185058594,1504.0,0.0,0.0,1067.0,0.0,-0.05305800926062762,0.0,5.0,2.0116217136383057,0.0,1500.0,0.0,25.122947999999997,0.0,0.0,0.0,1603.0,1500.0,-1.732260396868501e-05,0.0,0.008028514559173916,0.0,0.0,1.0,0.38583242893218994,0.0006858444086804728,0.0,25.142543999999997,1418.0,0.0,1584.0,5.0,1500.0,,,,,,,,,,,,,,,,
17.700033,-9.485547065734863,0.0,0.0,0.0,0.0,-6.895131959128857e-05,0.04924501106142998,1507.0,0.0,0.0,1067.0,0.0,-0.05305800926062762,0.0,5.0,2.0482771396636963,0.0,1500.0,0.0,25.203048,0.0,0.0,0.0,1603.0,1500.0,-5.293063651950137e-06,0.0,0.008028514559173916,0.0,0.0,1.0,0.5045500993728638,0.00014324406192824273,0.0,25.242576,1418.0,0.0,1586.0,5.0,1500.0,,,,,,,,,,,,,,,,
17.800122,-9.456894874572754,0.0,0.0,0.0,0.0,-1.041154631761573e-05,0.02907625027000904,1508.0,0.0,0.0,1067.0,0.0,-0.05305800926062762,0.0,5.0,2.06911039352417,0.0,1500.0,0.0,25.322917999999998,0.0,0.0,0.0,1603.0,1500.0,-1.044496180474299e-05,0.0,0.008028514559173916,0.0,0.0,1.0,0.38043615221977234,0.0003204183630919043,0.0,25.342665,1418.0,0.0,1589.0,5.0,1500.0,,,,,,,,,,,,,,,,
17.900009,-8.134838104248047,0.0,0.0,0.0,0.0,2.78162748499756e-06,0.0843718871474266,1512.0,0.0,0.0,1067.0,0.0,-0.05305800926062762,0.0,5.0,1.468428134918213,0.0,1500.0,0.0,25.403046,0.0,0.0,0.0,1602.0,1500.0,-3.673735146449797e-05,0.0,0.008028514559173916,0.0,0.0,1.0,0.4101155698299408,0.003319514045560405,0.0,25.442552,1418.0,0.0,1591.0,5.0,1500.0,,,,,,,,,,,,,,,,
18.000143,-9.90332317352295,0.0,0.0,0.0,0.0,-0.00013300410675808703,-0.0614500567317009,1556.0,0.0,0.0,1067.0,0.0,-0.05305800926062762,0.0,5.0,2.7892186641693115,0.0,1500.0,0.0,25.52355,0.0,0.0,0.0,1603.0,1500.0,-7.157019490017932e-05,0.0,0.008028514559173916,0.0,0.0,1.0,0.48566317558288574,0.0015525880655566187,0.0,25.542686,1418.0,0.0,1646.0,5.0,1500.0,,,,,,,,,,,,,,,,
18.10012,-9.479682922363281,0.0,0.0,0.0,0.0,-6.096983360655085e-05,0.00719758914783597,1564.0,0.0,0.0,1067.0,0.0,-0.05305800926062762,0.0,5.0,2.604456901550293,0.0,1500.0,0.0,25.603558999999997,0.0,0.0,0.0,1602.0,1500.0,-7.550619224709294e-05,0.0,0.008028514559173916,0.0,0.0,1.0,0.4532856345176697,0.0015045121562083713,0.0,25.642663,1418.0,0.0,1654.0,5.0,1500.0,,,,,,,,,,,,,,,,
18.200493,-9.489303588867188,0.0,0.0,0.0,0.0,-3.345627409604294e-05,0.15462909638881683,1577.0,0.0,0.0,1067.0,0.0,-0.05305800926062762,0.0,5.0,2.5694150924682617,0.0,1500.0,0.0,25.722945,0.0,0.0,0.0,1603.0,1500.0,2.091265166731193e-05,0.0,0.008028514559173916,0.0,0.0,1.0,0.4236062169075012,0.000143651403340092,0.0,25.743036,1418.0,0.0,1671.0,5.0,1500.0,,,,,,,,,,,,,,,,
18.300059,-9.393229484558105,0.0,0.0,0.0,0.0,3.5884949736322305e-05,0.00801394134759903,1578.0,0.0,0.0,1068.0,0.0,-0.05305800926062762,0.0,5.0,2.6749930381774902,0.0,1500.0,0.0,25.803084,0.0,0.0,0.0,1603.0,1500.0,6.078263292000196e-05,0.0,0.008028514559173916,0.0,0.0,1.0,0.38583242893218994,-4.2821895957817956e-05,0.0,25.842602,1418.0,0.0,1670.0,5.0,1500.0,,,,,,,,,,,,,,,,
18.400051,-9.627800941467285,0.0,0.0,0.0,0.0,2.153578365500644e-05,-0.025244083255529404,1578.0,0.0,0.0,1068.0,0.0,-0.05305800926062762,0.0,5.0,2.798640251159668,0.0,1500.0,0.0,25.922978,0.0,0.0,0.0,1603.0,1500.0,-8.747578593982617e-06,0.0,0.008028514559173916,0.0,0.0,1.0,0.4128136932849884,-6.873565803669061e-06,0.0,25.942594,1418.0,0.0,1670.0,5.0,1500.0,,,,,,,,,,,,,,,,
18.500065,-9.48875617980957,0.0,0.0,0.0,0.0,-0.00017341305750863907,0.014164754189550877,1577.0,0.0,0.0,1067.0,0.0,-0.05305800926062762,0.0,5.0,2.7090578079223633,0.0,1500.0,0.0,26.003342,0.0,0.0,0.0,1604.0,1500.0,-4.6456552498709195e-05,0.0,0.008028514559173916,0.0,0.0,1.0,0.4694744050502777,0.0001677072056147827,0.0,26.042607999999998,1417.0,0.0,1671.0,5.0,1500.0,,,,,,,,,,,,,,,,
18.600118000000002,-9.306628227233887,0.0,0.0,0.0,0.0,4.842904558159842e-05,0.08449206501245499,1578.0,0.0,0.0,1067.0,0.0,-0.05305800926062762,0.0,5.0,2.575918674468994,0.0,1500.0,0.0,26.12296,0.0,0.0,0.0,1603.0,1500.0,1.203355013455353e-06,0.0,0.008028514559173916,0.0,0.0,1.0,0.402021199464798,-4.821206536889844e-06,0.0,26.142661,1417.0,0.0,1671.0,5.0,1500.0,,,,,,,,,,,,,,,,
18.700056,-9.437740325927734,0.0,0.0,0.0,0.0,-4.5672704737192525e-05,0.06978379189968109,1578.0,0.0,0.0,1067.0,0.0,-0.05305800926062762,0.0,5.0,2.6255204677581787,0.0,1500.0,0.0,26.203101,0.0,0.0,0.0,1602.0,1500.0,1.853868103587449e-05,0.0,0.008028514559173916,0.0,0.0,1.0,0.3723417818546295,-3.325946691410686e-05,0.0,26.242599,1418.0,0.0,1671.0,5.0,1500.0,,,,,,,,,,,,,,,,
18.800053000000002,-9.439987182617188,0.0,0.0,0.0,0.0,1.938771602063717e-05,-0.02565876767039299,1578.0,0.0,0.0,1067.0,0.0,-0.05305800926062762,0.0,5.0,2.721100330352783,0.0,1500.0,0.0,26.322983999999998,0.0,0.0,0.0,1603.0,1500.0,8.62266977198119e-06,0.0,0.008028514559173916,0.0,0.0,1.0,0.4775688052177429,-2.831015904128219e-05,0.0,26.342596,1418.0,0.0,1670.0,5.0,1500.0,,,,,,,,,,,,,,,,
18.900116,-9.524972915649414,0.0,0.0,0.0,0.0,-6.520454663426683e-05,0.033325690776109695,1578.0,0.0,0.0,1068.0,0.0,-0.05305800926062762,0.0,5.0,2.7065906524658203,0.0,1500.0,0.0,26.403036,0.0,0.0,0.0,1603.0,1500.0,-7.283571961436337e-06,0.0,0.008028514559173916,0.0,0.0,1.0,0.5153425931930542,2.3783022912335365e-05,0.0,26.442659,1418.0,0.0,1670.0,5.0,1500.0,,,,,,,,,,,,,,,,
19.000047000000002,-9.33187484741211,0.0,0.0,0.0,0.0,-8.833535799842092e-05,0.03813253343105316,1578.0,0.0,0.0,1067.0,0.0,-0.05305800926062762,0.0,5.0,2.62721586227417,0.0,1500.0,0.0,26.523332999999997,0.0,0.0,0.0,1604.0,1500.0,-4.664881041178488e-06,0.0,0.008028514559173916,0.0,0.0,1.0,0.5477201342582703,2.0588446670809003e-05,0.0,26.54259,1417.0,0.0,1670.0,5.0,1500.0,,,,,,,,,,,,,,,,
19.100068,-9.439363479614258,0.0,0.0,0.0,0.0,4.460333193955488e-05,0.05801570788025856,1578.0,0.0,0.0,1068.0,0.0,-0.05305800926062762,0.0,5.0,2.637620449066162,0.0,1500.0,0.0,26.603357,0.0,0.0,0.0,1603.0,1500.0,1.040925136487888e-05,0.0,0.008028514559173916,0.0,0.0,1.0,0.33456796407699585,-7.868997743595405e-06,0.0,26.642611,1418.0,0.0,1670.0,5.0,1500.0,,,,,,,,,,,,,,,,
19.200059,-9.519018173217773,0.0,0.0,0.0,0.0,-0.0001130405983724343,0.02304629236459732,1578.0,0.0,0.0,1068.0,0.0,-0.05305800926062762,0.0,5.0,2.6895179748535156,0.0,1500.0,0.0,26.722980999999997,0.0,0.0,0.0,1602.0,1500.0,2.5858755343176873e-05,0.0,0.008028514559173916,0.0,0.0,1.0,0.4748706817626953,-0.002338782867821083,0.0,26.742601999999998,1418.0,0.0,1670.0,5.0,1500.0,,,,,,,,,,,,,,,,
19.300048,-9.121031761169434,0.0,0.0,0.0,0.0,4.2296822149878317e-07,0.025067832320928574,1550.0,0.0,0.0,1067.0,0.0,-0.05305800926062762,0.0,5.0,2.3212244510650635,0.0,1500.0,0.0,26.803005,0.0,0.0,0.0,1602.0,1500.0,3.650011085231548e-05,0.0,0.008028514559173916,0.0,0.0,1.0,0.49645569920539856,-0.0029885067888271487,0.0,26.842591,1418.0,0.0,1639.0,5.0,1500.0,,,,,,,,,,,,,,,,
19.400038,-9.8096284866333,0.0,0.0,0.0,0.0,-8.905087935831315e-05,-0.06286357343196869,1507.0,0.0,0.0,1067.0,0.0,-0.05305800926062762,0.0,5.0,2.2934985160827637,0.0,1500.0,0.0,26.922991999999997,0.0,0.0,0.0,1602.0,1501.0,-3.222424918995878e-05,0.0,0.008028514559173916,0.0,0.0,1.0,0.4586819112300873,-0.0017347069323003313,0.0,26.942580999999997,1417.0,0.0,1586.0,5.0,1500.0,,,,,,,,,,,,,,,,
19.500118,-9.48486614227295,0.0,0.0,0.0,0.0,-0.00020548636606210812,0.099228136241436,1501.0,0.0,0.0,1068.0,0.0,-0.05305800926062762,0.0,5.0,2.014094829559326,0.0,1500.0,0.0,27.003574999999998,0.0,0.0,0.0,1602.0,1500.0,-4.3348050699671714e-05,0.0,0.008028514559173916,0.0,0.0,1.0,0.3750399053096771,-0.000978648567561677,0.0,27.042661,1418.0,0.0,1580.0,5.0,1500.0,,,,,,,,,,,,,,,,
19.600042000000002,-9.301448822021484,0.0,0.0,0.0,0.0,1.180064189330787e-05,0.1158926784992218,1494.0,0.0,0.0,1067.0,0.0,-0.05305800926062762,0.0,5.0,1.8449559211730957,0.0,1500.0,0.0,27.122937999999998,0.0,0.0,0.0,1603.0,1500.0,1.2607440198108375e-05,0.0,0.008028514559173916,0.0,0.0,1.0,0.3696436583995819,-0.00025143615154717516,0.0,27.142585,1417.0,0.0,1573.0,5.0,1500.0,,,,,,,,,,,,,,,,
19.700017,-9.644771575927734,0.0,0.0,0.0,0.0,3.0349875241744406e-05,0.016611656174063683,1492.0,0.0,0.0,1067.0,0.0,-0.05305800926062762,0.0,5.0,1.9918489456176758,0.0,1500.0,0.0,27.202903,0.0,0.0,0.0,1603.0,1501.0,4.677312797106261e-05,0.0,0.008028514559173916,0.0,0.0,1.0,0.43709686398506165,-0.0002262771627489091,0.0,27.242559999999997,1417.0,0.0,1570.0,5.0,1500.0,,,,,,,,,,,,,,,,
19.800048,-9.684333801269531,0.0,0.0,0.0,0.0,-3.910928620160843e-05,-0.056356627494096756,1492.0,0.0,0.0,1068.0,0.0,-0.05305800926062762,0.0,5.0,2.088099956512451,0.0,1500.0,0.0,27.322947,0.0,0.0,0.0,1602.0,1500.0,-3.3371536090174387e-07,0.0,0.008028514559173916,0.0,0.0,1.0,0.3561530113220215,-1.5510391847855493e-05,0.0,27.342591,1418.0,0.0,1569.0,5.0,1500.0,,,,,,,,,,,,,,,,
19.900039,-9.609516143798828,0.0,0.0,0.0,0.0,-7.124191608319177e-05,0.03442841395735741,1492.0,0.0,0.0,1067.0,0.0,-0.05305800926062762,0.0,5.0,1.9862637519836426,0.0,1500.0,0.0,27.40299,0.0,0.0,0.0,1603.0,1500.0,-2.495314809719053e-05,0.0,0.008028514559173916,0.0,0.0,1.0,0.43709686398506165,4.4373036124587585e-05,0.0,27.442581999999998,1417.0,0.0,1569.0,5.0,1500.0,,,,,,,,,,,,,,,,
20.000045,-9.43770694732666,0.0,0.0,0.0,0.0,-7.147217938886842e-05,0.0888654813170433,1492.0,0.0,0.0,1067.0,0.0,-0.05305800926062762,0.0,5.0,1.9009255170822144,0.0,1500.0,0.0,27.523515999999997,0.0,0.0,0.0,1602.0,1500.0,-1.3432306557103164e-05,0.0,0.008028514559173916,0.0,0.0,1.0,0.4209080934524536,2.3032856807763155e-05,0.0,27.542588,1418.0,0.0,1570.0,5.0,1500.0,,,,,,,,,,,,,,,,
20.100044,-9.573763847351074,0.0,0.0,0.0,0.0,6.211897201246053e-05,0.04961943253874779,1492.0,0.0,0.0,1067.0,0.0,-0.05305800926062762,0.0,5.0,1.9821953773498535,0.0,1500.0,0.0,27.603543,0.0,0.0,0.0,1602.0,1500.0,1.5419009247752604e-05,0.0,0.008028514559173916,0.0,0.0,1.0,0.5045500993728638,2.6087397247982335e-05,0.0,27.642587,1418.0,0.0,1570.0,5.0,1500.0,,,,,,,,,,,,,,,,
20.200084,-9.615911483764648,0.0,0.0,0.0,0.0,-5.022053912513031e-05,-0.003455574857071042,1492.0,0.0,0.0,1067.0,0.0,-0.05305800926062762,0.0,5.0,2.0282514095306396,0.0,1501.0,0.0,27.723145,0.0,0.0,0.0,1603.0,1500.0,1.4771452623626326e-05,0.0,0.008028514559173916,0.0,0.0,1.0,0.43439874053001404,4.080723019763252e-05,0.0,27.742627,1417.0,0.0,1569.0,5.0,1500.0,,,,,,,,,,,,,,,,
20.300118,-9.590563774108887,0.0,0.0,0.0,0.0,-3.937116072878124e-05,0.02004352957010269,1491.0,0.0,0.0,1067.0,0.0,-0.05305800926062762,0.0,5.0,1.9991085529327393,0.0,1500.0,0.0,27.802999999999997,0.0,0.0,0.0,1603.0,1501.0,-1.0374826057910791e-05,0.0,0.008028514559173916,0.0,0.0,1.0,0.5153425931930542,-1.9111460196012893e-05,0.0,27.842661,1417.0,0.0,1570.0,5.0,1500.0,,,,,,,,,,,,,,,,
20.400049,-9.62946891784668,0.0,0.0,0.0,0.0,-5.266512399952171e-05,0.08092977851629257,1491.0,0.0,0.0,1067.0,0.0,-0.05305800926062762,0.0,5.0,1.9441399574279785,0.0,1500.0,0.0,27.922946,0.0,0.0,0.0,1602.0,1500.0,7.674525389072991e-07,0.0,0.008028514559173916,0.0,0.0,1.0,0.49915382266044617,-0.00023570295524401663,0.0,27.942591999999998,1418.0,0.0,1569.0,5.0,1500.0,,,,,,,,,,,,,,,,
20.500055,-9.57055377960205,0.0,0.0,0.0,0.0,-2.8213775089995806e-05,0.047495126724243164,1489.0,0.0,0.0,1067.0,0.0,-0.05305800926062762,0.0,5.0,1.9267854690551758,0.0,1500.0,0.0,28.003341,0.0,0.0,0.0,1602.0,1500.0,7.9149877227547e-06,0.0,0.008028514559173916,0.0,0.0,1.0,0.38583242893218994,-0.0005054358232085862,0.0,28.042597999999998,1418.0,0.0,1566.0,5.0,1500.0,,,,,,,,,,,,,,,,
20.600025,-9.661727905273438,0.0,0.0,0.0,0.0,-2.152397465517769e-05,0.033370308578014374,1483.0,0.0,0.0,1067.0,0.0,-0.05305800926062762,0.0,5.0,1.9477293491363525,0.0,1500.0,0.0,28.122937,0.0,0.0,0.0,1602.0,1500.0,-4.767349309393157e-06,0.0,0.008028514559173916,0.0,0.0,1.0,0.33726608753204346,-0.00041917999513252087,0.0,28.142567999999997,1418.0,0.0,1561.0,5.0,1500.0,,,,,,,,,,,,,,,,
20.700006000000002,-9.570759773254395,0.0,0.0,0.0,0.0,-8.340673009811122e-05,0.024648748338222504,1481.0,0.0,0.0,1067.0,0.0,-0.05305800926062762,0.0,5.0,1.8697090148925781,0.0,1500.0,0.0,28.202941,0.0,0.0,0.0,1602.0,1501.0,8.979314976891864e-07,0.0,0.008028514559173916,0.0,0.0,1.0,0.5504182577133179,-0.0008253564040420518,0.0,28.242549,1417.0,0.0,1558.0,5.0,1500.0,,,,,,,,,,,,,,,,
20.800118,-9.653097152709961,0.0,0.0,0.0,0.0,-2.865793327350664e-05,0.039275601506233215,1476.0,0.0,0.0,1067.0,0.0,-0.05305800926062762,0.0,5.0,1.8588160276412964,0.0,1500.0,0.0,28.322896,0.0,0.0,0.0,1602.0,1500.0,-5.882762881956731e-06,0.0,0.008028514559173916,0.0,0.0,1.0,0.4802669286727905,-0.00043924235614371874,0.0,28.342661,1418.0,0.0,1553.0,5.0,1500.0,,,,,,,,,,,,,,,,
20.900045,-9.22327709197998,0.0,0.0,0.0,0.0,-0.00045715806367469067,-0.010560192167758942,1472.0,0.0,0.0,1067.0,0.0,-0.05305800926062762,0.0,5.0,1.3891589641571045,0.0,1500.0,0.0,28.403074999999998,0.0,0.0,0.0,1602.0,1500.0,0.00026495731818660984,0.0,0.008028514559173916,0.0,0.0,1.0,0.43979498744010925,-0.020333072636376057,0.0,28.442587999999997,1417.0,0.0,1548.0,5.0,1501.0,,,,,,,,,,,,,,,,
20.999993,-8.980352401733398,0.0,0.0,0.0,0.0,-0.0002679973432285536,-0.11832764744758606,1404.0,0.0,0.0,1067.0,0.0,-0.05305800926062762,0.0,5.0,1.0552787780761719,0.0,1500.0,0.0,28.523518,0.0,0.0,0.0,1602.0,1500.0,2.7286510560944314e-05,0.0,0.008028514559173916,0.0,0.0,1.0,0.6259658932685852,-0.004184785746774482,0.0,28.542536,1417.0,0.0,1478.0,5.0,1500.0,,,,,,,,,,,,,,,,
21.100123,-9.681547164916992,0.0,0.0,0.0,0.0,-2.621334027179258e-05,0.1510828733444214,1395.0,0.0,0.0,1067.0,0.0,-0.05305800926062762,0.0,5.0,1.086078405380249,0.0,1500.0,0.0,28.603541,0.0,0.0,0.0,1602.0,1500.0,-3.1603707786362975e-05,0.0,0.008028514559173916,0.0,0.0,1.0,0.43979498744010925,-0.00013243886772154885,0.0,28.642666,1418.0,0.0,1469.0,5.0,1500.0,,,,,,,,,,,,,,,,
21.200014,-9.588125228881836,0.0,0.0,0.0,0.0,-0.00010162564365565656,0.14173534512519836,1395.0,0.0,0.0,1067.0,0.0,-0.05305800926062762,0.0,5.0,1.039590835571289,0.0,1500.0,0.0,28.722984999999998,0.0,0.0,0.0,1602.0,1500.0,4.487308590604909e-05,0.0,0.008028514559173916,0.0,0.0,1.0,0.5908902287483215,-3.096732623089776e-05,0.0,28.742556999999998,1417.0,0.0,1469.0,5.0,1500.0,,,,,,,,,,,,,,,,
21.300062,-9.795516967773438,0.0,0.0,0.0,0.0,0.00014268438198040574,0.017010919749736786,1395.0,0.0,0.0,1067.0,0.0,-0.05305800926062762,0.0,5.0,1.1636396646499634,0.0,1500.0,0.0,28.803106999999997,0.0,0.0,0.0,1602.0,1501.0,4.004655444894224e-06,0.0,0.008028514559173916,0.0,0.0,1.0,0.39392679929733276,-6.165084229075637e-05,0.0,28.842605,1417.0,0.0,1469.0,5.0,1500.0,,,,,,,,,,,,,,,,
21.400029,-9.893288612365723,0.0,0.0,0.0,0.0,-0.00016022036474193588,0.01388135552406311,1395.0,0.0,0.0,1068.0,0.0,-0.05305800926062762,0.0,5.0,1.1970163583755493,0.0,1500.0,0.0,28.922929999999997,0.0,0.0,0.0,1601.0,1500.0,1.623186215395791e-06,0.0,0.008028514559173916,0.0,0.0,1.0,0.5396257638931274,4.709433500141837e-06,0.0,28.942572,1418.0,0.0,1469.0,5.0,1500.0,,,,,,,,,,,,,,,,
21.50007,-9.60172176361084,0.0,0.0,0.0,0.0,-2.898586667928103e-05,0.046944621950387955,1394.0,0.0,0.0,1067.0,0.0,-0.05305800926062762,0.0,5.0,1.1164486408233643,0.0,1500.0,0.0,29.003545,0.0,0.0,0.0,1602.0,1500.0,-3.261192248096458e-05,0.0,0.008028514559173916,0.0,0.0,1.0,0.523436963558197,1.7527579109896993e-05,0.0,29.042613,1418.0,0.0,1470.0,5.0,1500.0,,,,,,,,,,,,,,,,
21.60006,-9.718437194824219,0.0,0.0,0.0,0.0,-3.089159177466637e-05,0.1271090805530548,1395.0,0.0,0.0,1067.0,0.0,-0.05305800926062762,0.0,5.0,1.0566014051437378,0.0,1500.0,0.0,29.122946,0.0,0.0,0.0,1602.0,1501.0,7.818126799219555e-06,0.0,0.008028514559173916,0.0,0.0,1.0,0.38043615221977234,-5.5783533004884896e-05,0.0,29.142602999999998,1417.0,0.0,1469.0,5.0,1500.0,,,,,,,,,,,,,,,,
21.700052,-9.661871910095215,0.0,0.0,0.0,0.0,-3.432102529100442e-05,-0.00023655506083741784,1394.0,0.0,0.0,1067.0,0.0,-0.05305800926062762,0.0,5.0,1.1479215621948242,0.0,1500.0,0.0,29.203093,0.0,0.0,0.0,1602.0,1500.0,9.575696897957777e-06,0.0,0.008028514559173916,0.0,0.0,1.0,0.5261351466178894,-6.747176488253108e-05,0.0,29.242594999999998,1418.0,0.0,1470.0,5.0,1500.0,,,,,,,,,,,,,,,,
21.800029,-9.878694534301758,0.0,0.0,0.0,0.0,3.484498159207794e-05,0.029682235792279243,1395.0,0.0,0.0,1067.0,0.0,-0.05305800926062762,0.0,5.0,1.1590478420257568,0.0,1500.0,0.0,29.322943,0.0,0.0,0.0,1602.0,1500.0,-1.7123675555533994e-05,0.0,0.008028514559173916,0.0,0.0,1.0,0.49375757575035095,-4.493248038006733e-05,0.0,29.342571999999997,1417.0,0.0,1469.0,5.0,1500.0,,,,,,,,,,,,,,,,
21.900086,-9.702747344970703,0.0,0.0,0.0,0.0,-0.0001449387062312658,0.037470247596502304,1395.0,0.0,0.0,1067.0,0.0,-0.05305800926062762,0.0,5.0,1.140181541442871,0.0,1500.0,0.0,29.403328,0.0,0.0,0.0,1601.0,1500.0,-2.690725920804763e-06,0.0,0.008028514559173916,0.0,0.0,1.0,0.43439874053001404,3.457901089428318e-05,0.0,29.442629,1418.0,0.0,1469.0,5.0,1500.0,,,,,,,,,,,,,,,,
22.000047,-9.665679931640625,0.0,0.0,0.0,0.0,5.185831248782188e-05,0.07153800874948502,1394.0,0.0,0.0,1067.0,0.0,-0.05305800926062762,0.0,5.0,1.1042416095733643,0.0,1500.0,0.0,29.523336999999998,0.0,0.0,0.0,1602.0,1500.0,-1.2839973058638556e-05,0.0,0.008028514559173916,0.0,0.0,1.0,0.4101155698299408,-7.550806153130534e-05,0.0,29.542589999999997,1418.0,0.0,1470.0,5.0,1500.0,,,,,,,,,,,,,,,,
22.100064,-9.79176139831543,0.0,0.0,0.0,0.0,-7.470244879969824e-05,0.06295593827962875,1395.0,0.0,0.0,1067.0,0.0,-0.05305800926062762,0.0,5.0,1.113553762435913,0.0,1500.0,0.0,29.603503999999997,0.0,0.0,0.0,1602.0,1500.0,1.7627047380133832e-05,0.0,0.008028514559173916,0.0,0.0,1.0,0.4128136932849884,-7.911808009354493e-05,0.0,29.642606999999998,1418.0,0.0,1469.0,5.0,1500.0,,,,,,,,,,,,,,,,
22.200114,-9.689743995666504,0.0,0.0,0.0,0.0,1.3481989896454942e-05,0.01805070787668228,1395.0,0.0,0.0,1067.0,0.0,-0.05305800926062762,0.0,5.0,1.159568428993225,0.0,1500.0,0.0,29.722917,0.0,0.0,0.0,1602.0,1500.0,-3.281593961401771e-06,0.0,0.008028514559173916,0.0,0.0,1.0,0.5558145642280579,-4.34485450443947e-06,0.0,29.742656999999998,1417.0,0.0,1469.0,5.0,1500.0,,,,,,,,,,,,,,,,
22.300012,-9.768671035766602,0.0,0.0,0.0,0.0,-6.984739755145302e-05,0.06614135205745697,1395.0,0.0,0.0,1067.0,0.0,-0.05305800926062762,0.0,5.0,1.123434066772461,0.0,1501.0,0.0,29.803082999999997,0.0,0.0,0.0,1602.0,1500.0,-1.562894408761944e-05,0.0,0.008028514559173916,0.0,0.0,1.0,0.4586819112300873,1.1352872130788844e-05,0.0,29.842554999999997,1417.0,0.0,1469.0,5.0,1500.0,,,,,,,,,,,,,,,,
22.400017000000002,-9.649073600769043,0.0,0.0,0.0,0.0,-6.713276612695156e-05,0.052045032382011414,1395.0,0.0,0.0,1068.0,0.0,-0.05305800926062762,0.0,5.0,1.1087321043014526,0.0,1500.0,0.0,29.922911,0.0,0.0,0.0,1602.0,1500.0,1.1408950149203086e-06,0.0,0.008028514559173916,0.0,0.0,1.0,0.48836132884025574,-1.242745657408387e-05,0.0,29.94256,1417.0,0.0,1469.0,5.0,1501.0,,,,,,,,,,,,,,,,
22.500004,-9.719649314880371,0.0,0.0,0.0,0.0,2.632966867289297e-05,0.06835407018661499,1395.0,0.0,0.0,1067.0,0.0,-0.05305800926062762,0.0,5.0,1.1170926094055176,0.0,1500.0,0.0,30.003263999999998,0.0,0.0,0.0,1602.0,1500.0,-6.736647338560649e-06,0.0,0.008028514559173916,0.0,0.0,1.0,0.5396257638931274,-1.579175874251921e-05,0.0,30.042547,1418.0,0.0,1469.0,5.0,1500.0,,,,,,,,,,,,,,,,
22.6,-9.45100212097168,0.0,0.0,0.0,0.0,-6.209848303202813e-05,0.052648380398750305,1395.0,0.0,0.0,1068.0,0.0,-0.05305800926062762,0.0,5.0,1.0550978183746338,0.0,1500.0,0.0,30.122884,0.0,0.0,0.0,1604.0,1500.0,-9.906950315039837e-06,0.0,0.008028514559173916,0.0,0.0,1.0,0.528833270072937,0.0021082609182280177,0.0,30.142543,1418.0,0.0,1470.0,5.0,1500.0,,,,,,,,,,,,,,,,
22.699979,-9.575188636779785,0.0,0.0,0.0,0.0,0.00011251418355625533,0.005862792022526264,1413.0,0.0,0.0,1067.0,0.0,-0.05305800926062762,0.0,5.0,1.3334351778030396,0.0,1500.0,0.0,30.202917,0.0,0.0,0.0,1603.0,1501.0,-6.789367858391438e-05,0.0,0.008028514559173916,0.0,0.0,1.0,0.5072482228279114,0.004741757280588783,0.0,30.242521999999997,1417.0,0.0,1489.0,5.0,1500.0,,,,,,,,,,,,,,,,
22.800011,-10.415915489196777,0.0,0.0,0.0,0.0,0.000348466566332787,0.06451601535081863,1437.0,0.0,0.0,1067.0,0.0,-0.05305800926062762,0.0,5.0,1.9862180948257446,0.0,1500.0,0.0,30.322864,0.0,0.0,0.0,1602.0,1500.0,-0.00022792764318058364,0.0,0.008028514559173916,0.0,0.0,1.0,0.37773802876472473,0.0173892559792945,0.0,30.342554,1418.0,0.0,1514.0,5.0,1500.0,,,,,,,,,,,,,,,,
22.899985,-9.524179458618164,0.0,0.0,0.0,0.0,0.00011919099043396663,0.1428661346435547,1476.0,0.0,0.0,1067.0,0.0,-0.05305800926062762,0.0,5.0,1.732329249382019,0.0,1500.0,0.0,30.402922999999998,0.0,0.0,0.0,1602.0,1500.0,3.5432786139988816e-05,0.0,0.008028514559173916,0.0,0.0,1.0,0.62056964635849,0.00039657316445140833,0.0,30.442528,1418.0,0.0,1553.0,5.0,1500.0,,,,,,,,,,,,,,,,
22.999891,-9.770000457763672,0.0,0.0,0.0,0.0,-3.45963342825385e-05,-0.047666486352682114,1485.0,0.0,0.0,1067.0,0.0,-0.05305800926062762,0.0,5.0,1.9788508415222168,0.0,1500.0,0.0,30.523322999999998,0.0,0.0,0.0,1602.0,1500.0,-2.337022425729699e-07,0.0,0.008028514559173916,0.0,0.0,1.0,0.4667762815952301,0.0014577805710470986,0.0,30.542434,1418.0,0.0,1562.0,5.0,1500.0,,,,,,,,,,,,,,,,
23.099956,-9.715478897094727,0.0,0.0,0.0,0.0,-1.1344231770883173e-05,-0.007530142553150654,1488.0,0.0,0.0,1068.0,0.0,-0.05305800926062762,0.0,5.0,2.0002822875976562,0.0,1500.0,0.0,30.603344999999997,0.0,0.0,0.0,1601.0,1500.0,-3.3224889219838854e-05,0.0,0.008028514559173916,0.0,0.0,1.0,0.4586819112300873,6.931168710997871e-06,0.0,30.642498999999997,1418.0,0.0,1565.0,5.0,1500.0,,,,,,,,,,,,,,,,
23.199984,-9.486429214477539,0.0,0.0,0.0,0.0,-0.00013869477681320965,0.08927416801452637,1491.0,0.0,0.0,1067.0,0.0,-0.05305800926062762,0.0,5.0,1.8969972133636475,0.0,1500.0,0.0,30.722883,0.0,0.0,0.0,1602.0,1500.0,-3.896480678663547e-05,0.0,0.008028514559173916,0.0,0.0,1.0,0.6070789694786072,0.0005545263150087413,0.0,30.742527,1418.0,0.0,1569.0,5.0,1500.0,,,,,,,,,,,,,,,,
23.300022,-9.48655891418457,0.0,0.0,0.0,0.0,5.4870375476145e-05,0.06982738524675369,1492.0,0.0,0.0,1067.0,0.0,-0.05305800926062762,0.0,5.0,1.9123289585113525,0.0,1500.0,0.0,30.802902,0.0,0.0,0.0,1602.0,1500.0,1.5207115723124084e-05,0.0,0.008028514559173916,0.0,0.0,1.0,0.4047193229198456,2.4302182061207295e-05,0.0,30.842564999999997,1418.0,0.0,1570.0,5.0,1500.0,,,,,,,,,,,,,,,,
23.399982,-9.649731636047363,0.0,0.0,0.0,0.0,-2.8082039316957797e-05,0.033652447164058685,1492.0,0.0,0.0,1067.0,0.0,-0.05305800926062762,0.0,5.0,1.9958090782165527,0.0,1500.0,0.0,30.922883,0.0,0.0,0.0,1603.0,1500.0,1.8886760042698786e-05,0.0,0.008028514559173916,0.0,0.0,1.0,0.5639089345932007,-5.785112592207981e-06,0.0,30.942525,1417.0,0.0,1569.0,5.0,1500.0,,,,,,,,,,,,,,,,
23.499996,-9.626128196716309,0.0,0.0,0.0,0.0,-4.415923064730269e-05,-0.014017809182405472,1492.0,0.0,0.0,1067.0,0.0,-0.05305800926062762,0.0,5.0,2.024880886077881,0.0,1500.0,0.0,31.003335,0.0,0.0,0.0,1602.0,1500.0,-1.173301647326308e-05,0.0,0.008028514559173916,0.0,0.0,1.0,0.4640781581401825,1.1377438995367205e-05,0.0,31.042538999999998,1418.0,0.0,1570.0,5.0,1500.0,,,,,,,,,,,,,,,,
23.599971,-9.61750316619873,0.0,0.0,0.0,0.0,-5.390226505522197e-05,0.06632678955793381,1492.0,0.0,0.0,1068.0,0.0,-0.05305800926062762,0.0,5.0,1.9549329280853271,0.0,1500.0,0.0,31.12287,0.0,0.0,0.0,1602.0,1500.0,-2.4256480094044858e-05,0.0,0.008028514559173916,0.0,0.0,1.0,0.44519126415252686,2.7895332365260662e-05,0.0,31.142514,1418.0,0.0,1569.0,5.0,1500.0,,,,,,,,,,,,,,,,
23.699997,-9.523421287536621,0.0,0.0,0.0,0.0,-7.035771214143738e-05,0.07039201259613037,1492.0,0.0,0.0,1068.0,0.0,-0.05305800926062762,0.0,5.0,1.9388818740844727,0.0,1500.0,0.0,31.202911999999998,0.0,0.0,0.0,1603.0,1500.0,-8.956104359282824e-06,0.0,0.008028514559173916,0.0,0.0,1.0,0.3723417818546295,-5.428253410130331e-07,0.0,31.242539999999998,1417.0,0.0,1569.0,5.0,1500.0,,,,,,,,,,,,,,,,
23.799953,-9.61763858795166,0.0,0.0,0.0,0.0,5.07440484234574e-05,0.04333367571234703,1494.0,0.0,0.0,1068.0,0.0,-0.05305800926062762,0.0,5.0,1.9782888889312744,0.0,1500.0,0.0,31.322892999999997,0.0,0.0,0.0,1602.0,1500.0,3.83645542281515e-06,0.0,0.008028514559173916,0.0,0.0,1.0,0.5935883522033691,0.00013468985977011723,0.0,31.342495999999997,1418.0,0.0,1572.0,5.0,1500.0,,,,,,,,,,,,,,,,
23.900001,-9.771341323852539,0.0,0.0,0.0,0.0,-8.218918401735047e-05,0.012085297144949436,1497.0,0.0,0.0,1067.0,0.0,-0.05305800926062762,0.0,5.0,2.0963289737701416,0.0,1500.0,0.0,31.40291,0.0,0.0,0.0,1602.0,1500.0,1.289801026977215e-06,0.0,0.008028514559173916,0.0,0.0,1.0,0.43170061707496643,0.0004565563167047521,0.0,31.442543999999998,1418.0,0.0,1575.0,5.0,1500.0,,,,,,,,,,,,,,,,
24.000009,-9.46545124053955,0.0,0.0,0.0,0.0,-5.348605775026313e-06,0.03285091370344162,1501.0,0.0,0.0,1067.0,0.0,-0.05305800926062762,0.0,5.0,2.0242557525634766,0.0,1500.0,0.0,31.523317,0.0,0.0,0.0,1602.0,1500.0,-9.728763845239099e-06,0.0,0.008028514559173916,0.0,0.0,1.0,0.5396257638931274,0.0002143615812107608,0.0,31.542551999999997,1418.0,0.0,1580.0,5.0,1500.0,,,,,,,,,,,,,,,,
24.100008,-9.706742286682129,0.0,0.0,0.0,0.0,-3.8599154476383976e-05,0.060760773718357086,1507.0,0.0,0.0,1067.0,0.0,-0.05305800926062762,0.0,5.0,2.136472702026367,0.0,1500.0,0.0,31.603299999999997,0.0,0.0,0.0,1602.0,1500.0,-2.333698731728947e-05,0.0,0.008028514559173916,0.0,0.0,1.0,0.43170061707496643,0.0015066071849350446,0.0,31.642550999999997,1418.0,0.0,1586.0,5.0,1500.0,,,,,,,,,,,,,,,,
24.199975,-9.426947593688965,0.0,0.0,0.0,0.0,0.00015624140636742777,0.07984268665313721,1560.0,0.0,0.0,1067.0,0.0,-0.05305800926062762,0.0,5.0,2.52103853225708,0.0,1500.0,0.0,31.722882,0.0,0.0,0.0,1602.0,1500.0,-2.7837060477685186e-06,0.0,0.008028514559173916,0.0,0.0,1.0,0.48836132884025574,0.007336490735112497,0.0,31.742517999999997,1418.0,0.0,1649.0,5.0,1500.0,,,,,,,,,,,,,,,,
24.300383,-9.73788833618164,0.0,0.0,0.0,0.0,0.00013388196326084194,-0.03128309175372124,1577.0,0.0,0.0,1067.0,0.0,-0.05305800926062762,0.0,5.0,2.8772361278533936,0.0,1500.0,0.0,31.802916,0.0,0.0,0.0,1602.0,1500.0,1.1475984814481838e-05,0.0,0.008028514559173916,0.0,0.0,1.0,0.32917171716690063,0.0005830318914597843,0.0,31.842926,1418.0,0.0,1670.0,5.0,1500.0,,,,,,,,,,,,,,,,
24.400014,-9.42805004119873,0.0,0.0,0.0,0.0,-0.00025944579057761614,-0.010758929885923862,1578.0,0.0,0.0,1067.0,0.0,-0.05305800926062762,0.0,5.0,2.681795120239258,0.0,1500.0,0.0,31.922884,0.0,0.0,0.0,1603.0,1500.0,-6.51155524511114e-05,0.0,0.008028514559173916,0.0,0.0,1.0,0.5773995518684387,-6.203485422290267e-05,0.0,31.942556999999997,1417.0,0.0,1671.0,5.0,1500.0,,,,,,,,,,,,,,,,
24.500007999999998,-9.252344131469727,0.0,0.0,0.0,0.0,6.429406299468293e-05,0.06308489292860031,1578.0,0.0,0.0,1067.0,0.0,-0.05305800926062762,0.0,5.0,2.540661096572876,0.0,1501.0,0.0,32.003288999999995,0.0,0.0,0.0,1603.0,1500.0,-2.741352029585402e-05,0.0,0.008028514559173916,0.0,0.0,1.0,0.4802669286727905,9.1278265598208e-06,0.0,32.042550999999996,1417.0,0.0,1671.0,5.0,1500.0,,,,,,,,,,,,,,,,
24.600012000000003,-9.420830726623535,0.0,0.0,0.0,0.0,-5.5099326219211646e-05,0.08525548875331879,1578.0,0.0,0.0,1067.0,0.0,-0.05305800926062762,0.0,5.0,2.6118106842041016,0.0,1500.0,0.0,32.122883,0.0,0.0,0.0,1603.0,1500.0,2.5794415393318437e-05,0.0,0.008028514559173916,0.0,0.0,1.0,0.44249311089515686,-5.650151694354389e-05,0.0,32.142555,1418.0,0.0,1671.0,5.0,1500.0,,,,,,,,,,,,,,,,
24.700002,-9.412487983703613,0.0,0.0,0.0,0.0,4.730710526097911e-05,-0.06618928909301758,1578.0,0.0,0.0,1067.0,0.0,-0.05305800926062762,0.0,5.0,2.750359296798706,0.0,1500.0,0.0,32.202917,0.0,0.0,0.0,1603.0,1500.0,1.7355314410571287e-05,0.0,0.008028514559173916,0.0,0.0,1.0,0.44788938760757446,-3.862525130945357e-05,0.0,32.242545,1418.0,0.0,1671.0,5.0,1500.0,,,,,,,,,,,,,,,,
24.799882,-9.600563049316406,0.0,0.0,0.0,0.0,-5.752274348172831e-05,0.021801650524139404,1577.0,0.0,0.0,1067.0,0.0,-0.05305800926062762,0.0,5.0,2.7094712257385254,0.0,1500.0,0.0,32.322891,0.0,0.0,0.0,1604.0,1500.0,-2.0119829309745088e-05,0.0,0.008028514559173916,0.0,0.0,1.0,0.5315313935279846,1.7307013731987483e-05,0.0,32.342425,1417.0,0.0,1671.0,5.0,1501.0,,,,,,,,,,,,,,,,
24.900001999999997,-9.302825927734375,0.0,0.0,0.0,0.0,-0.00015193997208431321,0.02956566959619522,1578.0,0.0,0.0,1068.0,0.0,-0.05305800926062762,0.0,5.0,2.6269173622131348,0.0,1500.0,0.0,32.402862,0.0,0.0,0.0,1603.0,1500.0,-2.686609228693092e-05,0.0,0.008028514559173916,0.0,0.0,1.0,0.49915382266044617,2.652865194547196e-05,0.0,32.442544999999996,1418.0,0.0,1670.0,5.0,1500.0,,,,,,,,,,,,,,,,
25.000001,-9.678016662597656,0.0,0.0,0.0,0.0,5.0104749159156314e-05,0.05575581267476082,1577.0,0.0,0.0,1067.0,0.0,-0.05305800926062762,0.0,5.0,2.667156219482422,0.0,1500.0,0.0,32.5233,0.0,0.0,0.0,1603.0,1500.0,2.985500866031097e-05,0.0,0.008028514559173916,0.0,0.0,1.0,0.5477201342582703,-0.0027501546514880327,0.0,32.542544,1418.0,0.0,1670.0,5.0,1500.0,,,,,,,,,,,,,,,,
25.099998000000003,-9.447542190551758,0.0,0.0,0.0,0.0,-0.00014039923892200914,0.009792396798729897,1559.0,0.0,0.0,1067.0,0.0,-0.05305800926062762,0.0,5.0,2.55808687210083,0.0,1500.0,0.0,32.603333,0.0,0.0,0.0,1602.0,1500.0,3.206779619687316e-05,0.0,0.008028514559173916,0.0,0.0,1.0,0.5558145642280579,-0.0021514398881070165,0.0,32.642541,1418.0,0.0,1649.0,5.0,1500.0,,,,,,,,,,,,,,,,
25.200006,-9.559368133544922,0.0,0.0,0.0,0.0,1.8716092362276283e-05,-0.007603267207741737,1548.0,0.0,0.0,1067.0,0.0,-0.05305800926062762,0.0,5.0,2.519753932952881,0.0,1500.0,0.0,32.722834,0.0,0.0,0.0,1602.0,1500.0,1.1755654114624406e-05,0.0,0.008028514559173916,0.0,0.0,1.0,0.62056964635849,-0.0010673646662448725,0.0,32.742549,1418.0,0.0,1635.0,5.0,1500.0,,,,,,,,,,,,,,,,
25.299989999999998,-9.791254043579102,0.0,0.0,0.0,0.0,-2.749220090655061e-05,-0.033767521381378174,1510.0,0.0,0.0,1067.0,0.0,-0.05305800926062762,0.0,5.0,2.2864725589752197,0.0,1500.0,0.0,32.802924,0.0,0.0,0.0,1602.0,1500.0,-3.204059811158278e-05,0.0,0.008028514559173916,0.0,0.0,1.0,0.4613800346851349,-0.0009308183634321653,0.0,32.842532999999996,1418.0,0.0,1589.0,5.0,1500.0,,,,,,,,,,,,,,,,
25.399874999999998,-9.492290496826172,0.0,0.0,0.0,0.0,-0.00021314945605421603,0.08209340274333954,1503.0,0.0,0.0,1067.0,0.0,-0.05305800926062762,0.0,5.0,2.052473783493042,0.0,1500.0,0.0,32.922895,0.0,0.0,0.0,1602.0,1500.0,-5.1591565630712835e-05,0.0,0.008028514559173916,0.0,0.0,1.0,0.5531163811683655,-0.0010060182043788142,0.0,32.942417999999996,1418.0,0.0,1582.0,5.0,1500.0,,,,,,,,,,,,,,,,
25.499987,-9.374092102050781,0.0,0.0,0.0,0.0,2.0363697753558922e-05,0.1026359498500824,1499.0,0.0,0.0,1067.0,0.0,-0.05305800926062762,0.0,5.0,1.9104059934616089,0.0,1500.0,0.0,33.003294,0.0,0.0,0.0,1602.0,1500.0,9.529432113700952e-06,0.0,0.008028514559173916,0.0,0.0,1.0,0.5639089345932007,-0.000703565288032577,0.0,33.04253,1418.0,0.0,1579.0,5.0,1500.0,,,,,,,,,,,,,,,,
25.600009000000004,-9.618305206298828,0.0,0.0,0.0,0.0,2.5086509334761057e-05,0.03326980397105217,1496.0,0.0,0.0,1068.0,0.0,-0.05305800926062762,0.0,5.0,1.9942097663879395,0.0,1501.0,0.0,33.122901,0.0,0.0,0.0,1602.0,1500.0,3.22885606941879e-05,0.0,0.008028514559173916,0.0,0.0,1.0,0.5072482228279114,-0.00040314553523290524,0.0,33.142552,1417.0,0.0,1573.0,5.0,1500.0,,,,,,,,,,,,,,,,
25.700014999999997,-9.648149490356445,0.0,0.0,0.0,0.0,-3.976626239270065e-05,-0.057146430015563965,1494.0,0.0,0.0,1067.0,0.0,-0.05305800926062762,0.0,5.0,2.0623459815979004,0.0,1500.0,0.0,33.202957,0.0,0.0,0.0,1602.0,1500.0,8.10378390433379e-06,0.0,0.008028514559173916,0.0,0.0,1.0,0.5747014284133911,-0.0003938779492007478,0.0,33.242557999999995,1418.0,0.0,1572.0,5.0,1500.0,,,,,,,,,,,,,,,,
25.80002,-9.646343231201172,0.0,0.0,0.0,0.0,-6.369970376104467e-05,0.03518807142972946,1492.0,0.0,0.0,1067.0,0.0,-0.05305800926062762,0.0,5.0,2.01202654838562,0.0,1500.0,0.0,33.3229,0.0,0.0,0.0,1603.0,1500.0,-3.519182321402686e-05,0.0,0.008028514559173916,0.0,0.0,1.0,0.6907209753990173,0.000110010269226427,0.0,33.342563,1417.0,0.0,1569.0,5.0,1500.0,,,,,,,,,,,,,,,,
25.899989,-9.476280212402344,0.0,0.0,0.0,0.0,-8.597701214480232e-05,0.07563382387161255,1491.0,0.0,0.0,1067.0,0.0,-0.05305800926062762,0.0,5.0,1.9135876893997192,0.0,1500.0,0.0,33.402875,0.0,0.0,0.0,1603.0,1501.0,-3.9197343202869315e-06,0.0,0.008028514559173916,0.0,0.0,1.0,0.7581741809844971,1.0159856341654478e-05,0.0,33.442532,1417.0,0.0,1570.0,5.0,1500.0,,,,,,,,,,,,,,,,
25.99994,-9.573634147644043,0.0,0.0,0.0,0.0,4.6164517477135483e-05,0.061977509409189224,1492.0,0.0,0.0,1068.0,0.0,-0.05305800926062762,0.0,5.0,1.952790379524231,0.0,1500.0,0.0,33.523323999999995,0.0,0.0,0.0,1602.0,1500.0,2.1048945344490653e-06,0.0,0.008028514559173916,0.0,0.0,1.0,0.43979498744010925,-4.919633392319005e-05,0.0,33.542483,1418.0,0.0,1569.0,5.0,1500.0,,,,,,,,,,,,,,,,
26.100040000000003,-9.6538724899292,0.0,0.0,0.0,0.0,-5.28044913285399e-05,0.012343550100922585,1492.0,0.0,0.0,1067.0,0.0,-0.05305800926062762,0.0,5.0,2.0120975971221924,0.0,1500.0,0.0,33.603303,0.0,0.0,0.0,1602.0,1500.0,2.2235371398818654e-05,0.0,0.008028514559173916,0.0,0.0,1.0,0.4209080934524536,-1.757705621843621e-05,0.0,33.642583,1418.0,0.0,1570.0,5.0,1500.0,,,,,,,,,,,,,,,,
26.199954,-9.58067512512207,0.0,0.0,0.0,0.0,-2.888088605244829e-05,0.0036706486716866493,1491.0,0.0,0.0,1067.0,0.0,-0.05305800926062762,0.0,5.0,2.0078160762786865,0.0,1500.0,0.0,33.722885999999995,0.0,0.0,0.0,1603.0,1500.0,-4.488454644691868e-06,0.0,0.008028514559173916,0.0,0.0,1.0,0.5072482228279114,-0.00037091042793986926,0.0,33.742497,1417.0,0.0,1569.0,5.0,1500.0,,,,,,,,,,,,,,,,
26.300006999999997,-9.623785972595215,0.0,0.0,0.0,0.0,-5.866658287326198e-05,0.06735442578792572,1490.0,0.0,0.0,1067.0,0.0,-0.05305800926062762,0.0,5.0,1.9269251823425293,0.0,1500.0,0.0,33.802915999999996,0.0,0.0,0.0,1602.0,1500.0,-1.3574462573709952e-05,0.0,0.008028514559173916,0.0,0.0,1.0,0.5450220108032227,-0.0004922850024082407,0.0,33.842549999999996,1418.0,0.0,1566.0,5.0,1500.0,,,,,,,,,,,,,,,,
26.399981999999998,-9.544517517089844,0.0,0.0,0.0,0.0,-3.421438262668717e-05,0.05275190994143486,1484.0,0.0,0.0,1067.0,0.0,-0.05305800926062762,0.0,5.0,1.9115182161331177,0.0,1500.0,0.0,33.922872,0.0,0.0,0.0,1602.0,1500.0,2.8040793408423963e-07,0.0,0.008028514559173916,0.0,0.0,1.0,0.6232677698135376,-0.0003380961676338967,0.0,33.942524999999996,1418.0,0.0,1562.0,5.0,1500.0,,,,,,,,,,,,,,,,
26.499990999999998,-9.666558265686035,0.0,0.0,0.0,0.0,8.185389843231243e-06,0.03908272832632065,1482.0,0.0,0.0,1067.0,0.0,-0.05305800926062762,0.0,5.0,1.893201470375061,0.0,1500.0,0.0,34.003298,0.0,0.0,0.0,1602.0,1500.0,1.0630676207159958e-05,0.0,0.008028514559173916,0.0,0.0,1.0,0.509946346282959,-0.0005411146071509264,0.0,34.042533999999996,1418.0,0.0,1558.0,5.0,1500.0,,,,,,,,,,,,,,,,
26.599979,-9.609317779541016,0.0,0.0,0.0,0.0,-7.858740656029076e-05,0.011248316615819931,1478.0,0.0,0.0,1067.0,0.0,-0.05305800926062762,0.0,5.0,1.862430214881897,0.0,1500.0,0.0,34.122776,0.0,0.0,0.0,1602.0,1500.0,2.09611486715338e-06,0.0,0.008028514559173916,0.0,0.0,1.0,0.5477201342582703,-0.00034371712151521955,0.0,34.142522,1418.0,0.0,1554.0,5.0,1500.0,,,,,,,,,,,,,,,,
26.699980999999998,-9.639997482299805,0.0,0.0,0.0,0.0,-1.146304002131099e-05,0.015532387420535088,1474.0,0.0,0.0,1067.0,0.0,-0.05305800926062762,0.0,5.0,1.844677448272705,0.0,1500.0,0.0,34.202912,0.0,0.0,0.0,1603.0,1500.0,-1.2194955206929008e-05,0.0,0.008028514559173916,0.0,0.0,1.0,0.6070789694786072,-0.0007898236193240224,0.0,34.242523999999996,1417.0,0.0,1551.0,5.0,1500.0,,,,,,,,,,,,,,,,
26.800015,-8.800371170043945,0.0,0.0,0.0,0.0,-9.674629171265017e-05,0.25234395265579224,1429.0,0.0,0.0,1067.0,0.0,-0.05305800926062762,0.0,5.0,0.9570717811584473,0.0,1500.0,0.0,34.322882,0.0,0.0,0.0,1602.0,1500.0,0.00011949212399326111,0.0,0.008028514559173916,0.0,0.0,1.0,0.5072482228279114,-0.0075403879657743875,0.0,34.342558,1418.0,0.0,1506.0,5.0,1500.0,,,,,,,,,,,,,,,,
26.899987,-9.758249282836914,0.0,0.0,0.0,0.0,-0.00012953577993914713,-0.030903086066246033,1414.0,0.0,0.0,1067.0,0.0,-0.05305800926062762,0.0,5.0,1.3269023895263672,0.0,1500.0,0.0,34.402910999999996,0.0,0.0,0.0,1602.0,1500.0,0.00011388774985016993,0.0,0.008028514559173916,0.0,0.0,1.0,0.7716648578643799,-0.005838197346131218,0.0,34.44253,1418.0,0.0,1489.0,5.0,1500.0,,,,,,,,,,,,,,,,
26.99999,-9.954591751098633,0.0,0.0,0.0,0.0,2.4682459488590133e-05,-0.04382123798131943,1395.0,0.0,0.0,1067.0,0.0,-0.05305800926062762,0.0,5.0,1.2128005027770996,0.0,1500.0,0.0,34.523357,0.0,0.0,0.0,1602.0,1500.0,-2.750396317427405e-05,0.0,0.008028514559173916,0.0,0.0,1.0,0.6043808460235596,-0.00011556474160836984,0.0,34.542533,1417.0,0.0,1470.0,5.0,1500.0,,,,,,,,,,,,,,,,
27.100005999999997,-9.705248832702637,0.0,0.0,0.0,0.0,-0.00018098005003758442,0.08289766311645508,1395.0,0.0,0.0,1068.0,0.0,-0.05305800926062762,0.0,5.0,1.096876859664917,0.0,1500.0,0.0,34.603318,0.0,0.0,0.0,1602.0,1500.0,-2.4084857453209498e-05,0.0,0.008028514559173916,0.0,0.0,1.0,0.5666070580482483,-1.4714019882115763e-05,0.0,34.642548999999995,1417.0,0.0,1469.0,5.0,1500.0,,,,,,,,,,,,,,,,
27.199983,-9.515548706054688,0.0,0.0,0.0,0.0,3.0343834609175432e-05,0.10230886936187744,1395.0,0.0,0.0,1067.0,0.0,-0.05305800926062762,0.0,5.0,1.0589529275894165,0.0,1500.0,0.0,34.722882,0.0,0.0,0.0,1602.0,1500.0,-1.0503515100865659e-05,0.0,0.008028514559173916,0.0,0.0,1.0,0.5207388401031494,-2.6323646326799987e-05,0.0,34.742526,1417.0,0.0,1469.0,5.0,1500.0,,,,,,,,,,,,,,,,
27.299999000000003,-9.793502807617188,0.0,0.0,0.0,0.0,2.4897656769880995e-05,0.07448702305555344,1395.0,0.0,0.0,1067.0,0.0,-0.05305800926062762,0.0,5.0,1.1159213781356812,0.0,1500.0,0.0,34.80287,0.0,0.0,0.0,1602.0,1500.0,2.0962866330382774e-05,0.0,0.008028514559173916,0.0,0.0,1.0,0.5666070580482483,-4.116604336586344e-05,0.0,34.842542,1417.0,0.0,1469.0,5.0,1500.0,,,,,,,,,,,,,,,,
27.400021,-9.753335952758789,0.0,0.0,0.0,0.0,-4.3822617260924646e-05,-0.012862145900726318,1394.0,0.0,0.0,1067.0,0.0,-0.05305800926062762,0.0,5.0,1.1939548254013062,0.0,1500.0,0.0,34.92288,0.0,0.0,0.0,1602.0,1500.0,-4.0754289325766044e-06,0.0,0.008028514559173916,0.0,0.0,1.0,0.5666070580482483,-1.1574335577852571e-05,0.0,34.942564,1418.0,0.0,1470.0,5.0,1500.0,,,,,,,,,,,,,,,,
27.499986000000003,-9.773576736450195,0.0,0.0,0.0,0.0,-1.935468861316705e-05,0.05808208882808685,1395.0,0.0,0.0,1067.0,0.0,-0.05305800926062762,0.0,5.0,1.1151371002197266,0.0,1500.0,0.0,35.00333,0.0,0.0,0.0,1602.0,1500.0,-2.7539107749297777e-05,0.0,0.008028514559173916,0.0,0.0,1.0,0.5153425931930542,0.0001043042710407627,0.0,35.042529,1418.0,0.0,1469.0,5.0,1500.0,,,,,,,,,,,,,,,,
27.599968999999998,-9.623783111572266,0.0,0.0,0.0,0.0,-0.00011006922482502145,0.07305031269788742,1394.0,0.0,0.0,1067.0,0.0,-0.05305800926062762,0.0,5.0,1.0809247493743896,0.0,1500.0,0.0,35.122772,0.0,0.0,0.0,1602.0,1500.0,3.747239897106592e-07,0.0,0.008028514559173916,0.0,0.0,1.0,0.4748706817626953,-5.5649533772485354e-05,0.0,35.142511999999996,1418.0,0.0,1470.0,5.0,1500.0,,,,,,,,,,,,,,,,
27.699986999999997,-9.65981674194336,0.0,0.0,0.0,0.0,6.876867426909206e-05,0.06658194214105606,1394.0,0.0,0.0,1067.0,0.0,-0.05305800926062762,0.0,5.0,1.1069841384887695,0.0,1500.0,0.0,35.202917,0.0,0.0,0.0,1602.0,1500.0,-1.0019158163550294e-05,0.0,0.008028514559173916,0.0,0.0,1.0,0.6475509405136108,-5.453155552166407e-05,0.0,35.242529999999995,1418.0,0.0,1470.0,5.0,1500.0,,,,,,,,,,,,,,,,
27.799874999999997,-9.795289993286133,0.0,0.0,0.0,0.0,-7.114774479550029e-05,0.022748742252588272,1395.0,0.0,0.0,1067.0,0.0,-0.05305800926062762,0.0,5.0,1.1550992727279663,0.0,1500.0,0.0,35.322891999999996,0.0,0.0,0.0,1602.0,1501.0,1.5674117778808807e-05,0.0,0.008028514559173916,0.0,0.0,1.0,0.5153425931930542,-5.051489144957819e-06,0.0,35.342417999999995,1417.0,0.0,1469.0,5.0,1500.0,,,,,,,,,,,,,,,,
27.899981,-9.713525772094727,0.0,0.0,0.0,0.0,-1.2404262211120157e-05,0.025279685854911804,1395.0,0.0,0.0,1068.0,0.0,-0.05305800926062762,0.0,5.0,1.1396408081054688,0.0,1500.0,0.0,35.402902,0.0,0.0,0.0,1601.0,1500.0,-4.249357955196309e-06,0.0,0.008028514559173916,0.0,0.0,1.0,0.48296505212783813,-2.6895956134054627e-05,0.0,35.442524,1418.0,0.0,1469.0,5.0,1500.0,,,,,,,,,,,,,,,,
27.999993,-9.718743324279785,0.0,0.0,0.0,0.0,-6.143604934376796e-05,0.0951366052031517,1395.0,0.0,0.0,1067.0,0.0,-0.05305800926062762,0.0,5.0,1.1052112579345703,0.0,1501.0,0.0,35.523303999999996,0.0,0.0,0.0,1602.0,1500.0,-2.9636033189897333e-06,0.0,0.008028514559173916,0.0,0.0,1.0,0.61517333984375,1.5018220489800044e-05,0.0,35.542536,1417.0,0.0,1469.0,5.0,1500.0,,,,,,,,,,,,,,,,
28.099981000000003,-9.611278533935547,0.0,0.0,0.0,0.0,-6.534399117285031e-05,0.05347516015172005,1395.0,0.0,0.0,1067.0,0.0,-0.05305800926062762,0.0,5.0,1.1028803586959839,0.0,1500.0,0.0,35.603308,0.0,0.0,0.0,1602.0,1500.0,5.80721332231591e-06,0.0,0.008028514559173916,0.0,0.0,1.0,0.6178715229034424,3.842310650835883e-06,0.0,35.642524,1418.0,0.0,1469.0,5.0,1500.0,,,,,,,,,,,,,,,,
28.2,-9.763855934143066,0.0,0.0,0.0,0.0,2.235128733829392e-05,0.0428222119808197,1402.0,0.0,0.0,1067.0,0.0,-0.05305800926062762,0.0,5.0,1.2105631828308105,0.0,1500.0,0.0,35.722908,0.0,0.0,0.0,1602.0,1500.0,-1.4047487991402993e-05,0.0,0.008028514559173916,0.0,0.0,1.0,0.6718340516090393,0.0019269533533417759,0.0,35.742543,1418.0,0.0,1476.0,5.0,1500.0,,,,,,,,,,,,,,,,
28.299963,-8.249465942382812,0.0,0.0,0.0,0.0,0.0003857486434714228,0.13684314489364624,1431.0,0.0,0.0,1068.0,0.0,-0.05305800926062762,0.0,5.0,0.9119260311126709,0.0,1500.0,0.0,35.802912,0.0,0.0,0.0,1602.0,1500.0,-0.00019056430906996724,0.0,0.008028514559173916,0.0,0.0,1.0,0.7177022695541382,0.01805414743494641,0.0,35.842506,1418.0,0.0,1507.0,5.0,1500.0,,,,,,,,,,,,,,,,
28.39997,-9.954133033752441,0.0,0.0,0.0,0.0,0.00017947137513172685,0.006287677213549614,1481.0,0.0,0.0,1068.0,0.0,-0.05305800926062762,0.0,5.0,2.0236153602600098,0.0,1500.0,0.0,35.922866,0.0,0.0,0.0,1601.0,1500.0,3.2582899811736454e-05,0.0,0.008028514559173916,0.0,0.0,1.0,0.5693051815032959,0.0010139604841590277,0.0,35.942513,1418.0,0.0,1556.0,5.0,1500.0,,,,,,,,,,,,,,,,
28.499959999999998,-9.770059585571289,0.0,0.0,0.0,0.0,-0.00016117914499644224,-0.058577172458171844,1484.0,0.0,0.0,1067.0,0.0,-0.05305800926062762,0.0,5.0,2.0045671463012695,0.0,1500.0,0.0,36.003299999999996,0.0,0.0,0.0,1601.0,1500.0,-8.70706795417091e-06,0.0,0.008028514559173916,0.0,0.0,1.0,0.44519126415252686,0.0005388174681642798,0.0,36.042502999999996,1418.0,0.0,1560.0,5.0,1500.0,,,,,,,,,,,,,,,,
28.599993,-9.536477088928223,0.0,0.0,0.0,0.0,-2.2836130899053705e-05,0.06698339432477951,1487.0,0.0,0.0,1068.0,0.0,-0.05305800926062762,0.0,5.0,1.8685730695724487,0.0,1500.0,0.0,36.082879999999996,0.0,0.0,0.0,1601.0,1500.0,-6.58215770344724e-05,0.0,0.008028514559173916,0.0,0.0,1.0,0.6745321750640869,0.0007099449762483892,0.0,36.142536,1418.0,0.0,1563.0,5.0,1500.0,,,,,,,,,,,,,,,,
28.700025999999998,-9.75632095336914,0.0,0.0,0.0,0.0,-0.00014257068073635605,0.1340440809726715,1492.0,0.0,0.0,1067.0,0.0,-0.05305800926062762,0.0,5.0,1.968261480331421,0.0,1500.0,0.0,36.202916,0.0,0.0,0.0,1602.0,1500.0,-8.58925428485393e-06,0.0,0.008028514559173916,0.0,0.0,1.0,0.6286640167236328,0.0008717034042949306,0.0,36.242568999999996,1418.0,0.0,1569.0,5.0,1500.0,,,,,,,,,,,,,,,,
28.799988000000003,-9.498576164245605,0.0,0.0,0.0,0.0,-5.146695142415793e-06,0.21087443828582764,1491.0,0.0,0.0,1067.0,0.0,-0.05305800926062762,0.0,5.0,1.9304275512695312,0.0,1500.0,0.0,36.322872,0.0,0.0,0.0,1603.0,1501.0,-4.7150642108740156e-06,0.0,0.008028514559173916,0.0,0.0,1.0,0.4694744050502777,5.075192786277878e-05,0.0,36.342531,1417.0,0.0,1570.0,5.0,1500.0,,,,,,,,,,,,,,,,
28.899995,-9.61740493774414,0.0,0.0,0.0,0.0,-4.479560407544524e-05,0.20262399315834045,1492.0,0.0,0.0,1067.0,0.0,-0.05305800926062762,0.0,5.0,1.8761928081512451,0.0,1500.0,0.0,36.402916,0.0,0.0,0.0,1602.0,1500.0,2.6343600935767326e-05,0.0,0.008028514559173916,0.0,0.0,1.0,0.5720033049583435,-8.63160779507938e-06,0.0,36.442538,1418.0,0.0,1570.0,5.0,1500.0,,,,,,,,,,,,,,,,
28.999993999999997,-9.544548034667969,0.0,0.0,0.0,0.0,-4.587965481781152e-05,0.0029536429792642593,1492.0,0.0,0.0,1067.0,0.0,-0.05305800926062762,0.0,5.0,1.9459209442138672,0.0,1500.0,0.0,36.523286,0.0,0.0,0.0,1603.0,1500.0,3.163772672719793e-06,0.0,0.008028514559173916,0.0,0.0,1.0,0.5558145642280579,-2.9145816452942237e-05,0.0,36.542536999999996,1417.0,0.0,1569.0,5.0,1500.0,,,,,,,,,,,,,,,,
29.099996,-9.681442260742188,0.0,0.0,0.0,0.0,4.401890835787165e-05,-0.008016361854970455,1492.0,0.0,0.0,1068.0,0.0,-0.05305800926062762,0.0,5.0,1.9942615032196045,0.0,1500.0,0.0,36.603345,0.0,0.0,0.0,1602.0,1500.0,-1.5285531179918803e-05,0.0,0.008028514559173916,0.0,0.0,1.0,0.49915382266044617,-1.0586485922012761e-05,0.0,36.642539,1418.0,0.0,1569.0,5.0,1500.0,,,,,,,,,,,,,,,,
29.200019,-9.486001968383789,0.0,0.0,0.0,0.0,-0.00014450617011916247,-0.0021601608023047447,1492.0,0.0,0.0,1067.0,0.0,-0.05305800926062762,0.0,5.0,1.9819601774215698,0.0,1500.0,0.0,36.723288,0.0,0.0,0.0,1602.0,1500.0,-2.6507925748809342e-06,0.0,0.008028514559173916,0.0,0.0,1.0,0.6502490639686584,-6.229929088854487e-06,0.0,36.742562,1418.0,0.0,1570.0,5.0,1500.0,,,,,,,,,,,,,,,,
29.299960000000002,-9.544958114624023,0.0,0.0,0.0,0.0,6.123191538045156e-05,0.031591907143592834,1492.0,0.0,0.0,1067.0,0.0,-0.05305800926062762,0.0,5.0,1.9703781604766846,0.0,1500.0,0.0,36.802906,0.0,0.0,0.0,1602.0,1500.0,-9.556107002594923e-06,0.0,0.008028514559173916,0.0,0.0,1.0,0.8013442754745483,-7.089926308016009e-06,0.0,36.842503,1418.0,0.0,1570.0,5.0,1500.0,,,,,,,,,,,,,,,,
29.399994000000003,-9.642626762390137,0.0,0.0,0.0,0.0,-8.804060438741657e-05,0.06982077658176422,1492.0,0.0,0.0,1068.0,0.0,-0.05305800926062762,0.0,5.0,1.9647507667541504,0.0,1500.0,0.0,36.922888,0.0,0.0,0.0,1602.0,1500.0,5.5914227464706755e-06,0.0,0.008028514559173916,0.0,0.0,1.0,0.5854939222335815,-5.239914517440429e-06,0.0,36.942537,1418.0,0.0,1569.0,5.0,1500.0,,,,,,,,,,,,,,,,
29.500003000000003,-9.554635047912598,0.0,0.0,0.0,0.0,1.664896879796513e-05,0.020741384476423264,1492.0,0.0,0.0,1067.0,0.0,-0.05305800926062762,0.0,5.0,1.9707622528076172,0.0,1500.0,0.0,37.003285,0.0,0.0,0.0,1603.0,1500.0,-4.524342361781557e-06,0.0,0.008028514559173916,0.0,0.0,1.0,0.5854939222335815,-5.796771744525141e-06,0.0,37.042546,1417.0,0.0,1569.0,5.0,1501.0,,,,,,,,,,,,,,,,
29.599832000000003,-9.656229019165039,0.0,0.0,0.0,0.0,-4.0531852123855806e-05,0.06331807374954224,1492.0,0.0,0.0,1067.0,0.0,-0.05305800926062762,0.0,5.0,1.9662067890167236,0.0,1500.0,0.0,37.122892,0.0,0.0,0.0,1602.0,1500.0,-1.674834766765268e-05,0.0,0.008028514559173916,0.0,0.0,1.0,0.6097770929336548,-6.64497875829157e-06,0.0,37.142375,1418.0,0.0,1570.0,5.0,1500.0,,,,,,,,,,,,,,,,
29.699986,-9.526871681213379,0.0,0.0,0.0,0.0,-7.504347125862074e-05,0.025510556995868683,1492.0,0.0,0.0,1067.0,0.0,-0.05305800926062762,0.0,5.0,1.9778387546539307,0.0,1500.0,0.0,37.20287,0.0,0.0,0.0,1602.0,1500.0,-2.206647852248259e-06,0.0,0.008028514559173916,0.0,0.0,1.0,0.5477201342582703,-1.6175551236953619e-06,0.0,37.242529,1418.0,0.0,1570.0,5.0,1500.0,,,,,,,,,,,,,,,,
29.800013000000003,-9.614959716796875,0.0,0.0,0.0,0.0,2.8041624173187377e-05,0.054112210869789124,1492.0,0.0,0.0,1067.0,0.0,-0.05305800926062762,0.0,5.0,1.9606565237045288,0.0,1500.0,0.0,37.322905,0.0,0.0,0.0,1603.0,1500.0,-1.3330763787756697e-05,0.0,0.008028514559173916,0.0,0.0,1.0,0.6745321750640869,-2.401015110329492e-05,0.0,37.342556,1417.0,0.0,1569.0,5.0,1501.0,,,,,,,,,,,,,,,,
29.899992,-9.595013618469238,0.0,0.0,0.0,0.0,-0.00010578396391400547,0.046222567558288574,1492.0,0.0,0.0,1067.0,0.0,-0.05305800926062762,0.0,5.0,1.959108829498291,0.0,1500.0,0.0,37.402913,0.0,0.0,0.0,1603.0,1500.0,6.163827033851267e-06,0.0,0.008028514559173916,0.0,0.0,1.0,0.7015134692192078,-5.388206662657476e-07,0.0,37.442535,1417.0,0.0,1569.0,5.0,1500.0,,,,,,,,,,,,,,,,
29.99999,-9.586078643798828,0.0,0.0,0.0,0.0,1.5786453632651202e-05,0.02880682423710823,1492.0,0.0,0.0,1067.0,0.0,-0.05305800926062762,0.0,5.0,1.9739502668380737,0.0,1500.0,0.0,37.523288,0.0,0.0,0.0,1602.0,1500.0,-9.503484620185284e-06,0.0,0.008028514559173916,0.0,0.0,1.0,0.5315313935279846,-7.016087549795665e-06,0.0,37.542533,1418.0,0.0,1570.0,5.0,1500.0,,,,,,,,,,,,,,,,
30.100002999999997,-9.620304107666016,0.0,0.0,0.0,0.0,-7.89405224753352e-05,0.0475708469748497,1492.0,0.0,0.0,1068.0,0.0,-0.05305800926062762,0.0,5.0,1.9643466472625732,0.0,1500.0,0.0,37.60329,0.0,0.0,0.0,1602.0,1500.0,6.937128070340219e-06,0.0,0.008028514559173916,0.0,0.0,1.0,0.6961172223091125,-1.6996910656219495e-05,0.0,37.642545999999996,1418.0,0.0,1569.0,5.0,1500.0,,,,,,,,,,,,,,,,
30.200002,-9.542224884033203,0.0,0.0,0.0,0.0,-1.2884250712504375e-05,0.029658563435077667,1492.0,0.0,0.0,1067.0,0.0,-0.05305800926062762,0.0,5.0,1.969704270362854,0.0,1500.0,0.0,37.722797,0.0,0.0,0.0,1603.0,1500.0,-4.61159171035285e-06,0.0,0.008028514559173916,0.0,0.0,1.0,0.5612108111381531,-5.130861086038392e-06,0.0,37.742545,1417.0,0.0,1569.0,5.0,1500.0,,,,,,,,,,,,,,,,
30.300006999999997,-9.64368724822998,0.0,0.0,0.0,0.0,-2.451349448226544e-05,0.05507732927799225,1492.0,0.0,0.0,1067.0,0.0,-0.05305800926062762,0.0,5.0,1.9647514820098877,0.0,1500.0,0.0,37.802907,0.0,0.0,0.0,1602.0,1500.0,-1.4702310441989629e-05,0.0,0.008028514559173916,0.0,0.0,1.0,0.6070789694786072,-5.6920298577956105e-06,0.0,37.842549999999996,1418.0,0.0,1570.0,5.0,1500.0,,,,,,,,,,,,,,,,
30.400373,-9.558296203613281,0.0,0.0,0.0,0.0,-5.40163320287915e-05,0.024065334349870682,1492.0,0.0,0.0,1068.0,0.0,-0.05305800926062762,0.0,5.0,1.973573923110962,0.0,1500.0,0.0,37.922886999999996,0.0,0.0,0.0,1602.0,1500.0,-1.3282946684871317e-05,0.0,0.008028514559173916,0.0,0.0,1.0,0.5315313935279846,-8.368554298162822e-06,0.0,37.942916,1418.0,0.0,1569.0,5.0,1500.0,,,,,,,,,,,,,,,,
30.499995000000002,-9.608214378356934,0.0,0.0,0.0,0.0,1.0717543063608442e-05,0.04638770595192909,1492.0,0.0,0.0,1067.0,0.0,-0.05305800926062762,0.0,5.0,1.959462285041809,0.0,1500.0,0.0,38.003319,0.0,0.0,0.0,1602.0,1500.0,-8.871465405159224e-06,0.0,0.008028514559173916,0.0,0.0,1.0,0.5720033049583435,9.018427717205604e-07,0.0,38.042538,1418.0,0.0,1570.0,5.0,1500.0,,,,,,,,,,,,,,,,
30.600002,-9.583897590637207,0.0,0.0,0.0,0.0,-7.759922165239112e-05,0.041475262492895126,1492.0,0.0,0.0,1067.0,0.0,-0.05305800926062762,0.0,5.0,1.9634461402893066,0.0,1500.0,0.0,38.122870999999996,0.0,0.0,0.0,1602.0,1500.0,-1.0041174064727932e-05,0.0,0.008028514559173916,0.0,0.0,1.0,0.6988153457641602,-5.658953178431847e-08,0.0,38.142545,1418.0,0.0,1570.0,5.0,1500.0,,,,,,,,,,,,,,,,
30.699965000000002,-9.573963165283203,0.0,0.0,0.0,0.0,1.6452541568363527e-05,0.030776752158999443,1492.0,0.0,0.0,1067.0,0.0,-0.05305800926062762,0.0,5.0,1.972781777381897,0.0,1500.0,0.0,38.202915,0.0,0.0,0.0,1602.0,1500.0,-1.5214269290940168e-06,0.0,0.008028514559173916,0.0,0.0,1.0,0.5639089345932007,-1.3276864399773698e-05,0.0,38.242508,1418.0,0.0,1570.0,5.0,1500.0,,,,,,,,,,,,,,,,
30.799879999999998,-9.626169204711914,0.0,0.0,0.0,0.0,-6.346209335568104e-05,0.040608324110507965,1492.0,0.0,0.0,1067.0,0.0,-0.05305800926062762,0.0,5.0,1.968517541885376,0.0,1500.0,0.0,38.322901,0.0,0.0,0.0,1602.0,1500.0,-1.113208528333678e-06,0.0,0.008028514559173916,0.0,0.0,1.0,0.4586819112300873,-1.4847324228427652e-05,0.0,38.342423,1418.0,0.0,1570.0,5.0,1500.0,,,,,,,,,,,,,,,,
30.900017000000002,-9.55356216430664,0.0,0.0,0.0,0.0,-1.83601217251466e-05,0.019366540014743805,1491.0,0.0,0.0,1067.0,0.0,-0.05305800926062762,0.0,5.0,1.9624336957931519,0.0,1500.0,0.0,38.40293,0.0,0.0,0.0,1603.0,1500.0,-8.820572110646052e-06,0.0,0.008028514559173916,0.0,0.0,1.0,0.6637396812438965,1.941346388678994e-06,0.0,38.44256,1417.0,0.0,1570.0,5.0,1501.0,,,,,,,,,,,,,,,,
31.000001,-9.617114067077637,0.0,0.0,0.0,0.0,-2.3560255029984294e-05,0.0595189705491066,1492.0,0.0,0.0,1067.0,0.0,-0.05305800926062762,0.0,5.0,1.966088056564331,0.0,1500.0,0.0,38.523326,0.0,0.0,0.0,1603.0,1500.0,-9.965566597913141e-06,0.0,0.008028514559173916,0.0,0.0,1.0,0.6178715229034424,2.3845452941368094e-06,0.0,38.542544,1417.0,0.0,1569.0,5.0,1500.0,,,,,,,,,,,,,,,,
31.100018000000002,-9.566730499267578,0.0,0.0,0.0,0.0,-5.487325254836756e-05,0.031544867902994156,1492.0,0.0,0.0,1067.0,0.0,-0.05305800926062762,0.0,5.0,1.9619309902191162,0.0,1500.0,0.0,38.603308999999996,0.0,0.0,0.0,1602.0,1500.0,1.0244505454931408e-05,0.0,0.008028514559173916,0.0,0.0,1.0,0.5989845991134644,-2.9593471417028654e-06,0.0,38.642561,1418.0,0.0,1570.0,5.0,1500.0,,,,,,,,,,,,,,,,
31.200000999999997,-9.61654281616211,0.0,0.0,0.0,0.0,6.701817697290096e-06,0.039957836270332336,1492.0,0.0,0.0,1067.0,0.0,-0.05305800926062762,0.0,5.0,1.9717533588409424,0.0,1500.0,0.0,38.722884,0.0,0.0,0.0,1602.0,1500.0,-5.944697652264705e-06,0.0,0.008028514559173916,0.0,0.0,1.0,0.5854939222335815,-6.202921487689016e-06,0.0,38.742543999999995,1418.0,0.0,1570.0,5.0,1500.0,,,,,,,,,,,,,,,,
