time_index,acceleration_z,servos_1,servos_6,position_y,airspeed_0,axis_rate_roll,acceleration_y,tx_controls_2,position_z,velocity_y,tx_controls_0,servos_2,attitude_pitch,wind_x,mode_0,acceleration_x,wind_y,tx_controls_6,servos_3,time_actual,servos_0,velocity_z,servos_5,tx_controls_3,tx_controls_5,axis_rate_yaw,servos_7,attitude_roll,velocity_x,servos_4,mode_2,altitude_baro,axis_rate_pitch,position_x,time_flight,tx_controls_4,attitude_yaw,tx_controls_1,mode_1,tx_controls_7,current_0,current_1,magnetometer_0,rpm_1,global_position_latitude,airspeed_1,magnetometer_2,battery_1,rpm_0,current_2,magnetometer_1,current_3,battery_0,altitude_gps,gps_sat_count_0,global_position_longitude
0.0,-9.631131172180176,0.0,0.0,,0.0,2.041764730236148e-07,0.003196655074134469,1491.0,,,1020.0,0.0,,,0.0,1.860875129699707,,1500.0,0.0,,0.0,,0.0,1602.0,1500.0,-1.9885806101421652e-06,0.0,,,0.0,0.0,-0.6011451482772827,2.718443138830212e-06,,3.9148929999999997,1418.0,,1568.0,0.0,1500.0,,,,,,,,,,,,,,,,
0.10011600000000032,-9.614266395568848,0.0,0.0,,0.0,2.1192684665143648e-05,0.002520262496545911,1491.0,,,1019.0,0.0,,,0.0,1.8715736865997314,,1500.0,0.0,,0.0,,0.0,1602.0,1500.0,-6.8354953924867986e-06,0.0,,,0.0,0.0,-0.010724944993853569,2.2201328583973373e-06,,4.015009,1418.0,,1568.0,0.0,1500.0,,,,,,,,,,,,,,,,
0.20005400000000018,-9.609578132629395,0.0,0.0,,0.0,-2.3831581633413707e-05,-0.006154848262667656,1490.0,,,1019.0,0.0,,,5.0,1.8680648803710938,,1500.0,0.0,,0.0,,0.0,1603.0,1500.0,6.310978306149552e-06,0.0,,,0.0,1.0,0.0670309066772461,4.215580802210563e-06,,4.114947,1417.0,,1569.0,5.0,1500.0,,,,,,,,,,,,,,,,
0.30002099999999965,-9.624162673950195,0.0,0.0,,0.0,2.364733116499134e-05,0.008374710567295551,1490.0,,,1020.0,0.0,,,5.0,1.8650507926940918,,1500.0,0.0,,0.0,,0.0,1603.0,1501.0,-4.238132090768599e-07,0.0,,,0.0,1.0,0.10188698023557663,-1.8420943814186301e-06,,4.214913999999999,1417.0,,1568.0,5.0,1500.0,,,,,,,,,,,,,,,,
0.4000530000000002,-9.60377025604248,0.0,0.0,,0.0,-2.4302833262935635e-06,0.010436915792524815,1491.0,,,1020.0,0.0,,,5.0,1.86870276927948,,1500.0,0.0,,0.0,,0.0,1602.0,1500.0,-6.463079117949358e-06,0.0,,,0.0,1.0,-0.026812363415956497,3.8368131520017205e-07,,4.314946,1418.0,,1568.0,5.0,1500.0,,,,,,,,,,,,,,,,
0.5001250000000002,-9.628706932067871,0.0,0.0,,0.0,9.790478669877516e-06,0.01712385192513466,1491.0,,,1019.0,0.0,,,5.0,1.8533047437667847,,1500.0,0.0,,0.0,,0.0,1603.0,1500.0,-2.193972530619442e-06,0.0,,,0.0,1.0,0.1313805729150772,-2.269273444982554e-06,,4.415018,1417.0,,1568.0,5.0,1500.0,,,,,,,,,,,,,,,,
0.5999820000000002,-9.601556777954102,0.0,0.0,,0.0,9.268565374538298e-06,0.009961210191249847,1490.0,,,1020.0,0.0,,,5.0,1.8582582473754883,,1500.0,0.0,,0.0,,0.0,1603.0,1501.0,3.342785081686118e-06,0.0,,,0.0,1.0,0.013406181707978249,-2.1562510863540054e-06,,4.514875,1417.0,,1568.0,5.0,1500.0,,,,,,,,,,,,,,,,
0.7001360000000001,-9.615337371826172,0.0,0.0,,0.0,-1.4259196619440939e-05,0.00376777327619493,1491.0,,,1020.0,0.0,,,5.0,1.8621760606765747,,1500.0,0.0,,0.0,,0.0,1602.0,1500.0,-2.1458877340438634e-06,0.0,,,0.0,1.0,0.056305959820747375,-8.595212628280945e-07,,4.615029,1418.0,,1568.0,5.0,1500.0,,,,,,,,,,,,,,,,
0.8001510000000001,-9.629640579223633,0.0,0.0,,0.0,5.932348185478891e-06,0.0126576479524374,1491.0,,,1019.0,0.0,,,5.0,1.8607858419418335,,1500.0,0.0,,0.0,,0.0,1602.0,1500.0,-1.8410202287393516e-05,0.0,,,0.0,1.0,0.07775585353374481,4.383197688888596e-06,,4.715044,1418.0,,1568.0,5.0,1500.0,,,,,,,,,,,,,,,,
0.9000369999999998,-9.62287712097168,0.0,0.0,,0.0,-1.875258200920067e-05,0.015242280438542366,1490.0,,,1019.0,0.0,,,5.0,1.8616106510162354,,1500.0,0.0,,0.0,,0.0,1603.0,1500.0,-1.2832120033115824e-05,0.0,,,0.0,1.0,0.16355541348457336,5.004029644269594e-06,,4.8149299999999995,1417.0,,1569.0,5.0,1500.0,,,,,,,,,,,,,,,,
1.0001460000000004,-9.623903274536133,0.0,0.0,0.0,0.0,2.7416750906612403e-05,-0.009243490174412727,1490.0,0.0,0.0,1019.0,0.0,-0.05305800926062762,0.0,5.0,1.8600809574127197,0.0,1500.0,0.0,4.895426,0.0,0.0,0.0,1603.0,1500.0,-4.323066676254051e-06,0.0,0.008028514559173916,0.0,0.0,1.0,0.09920573979616165,1.342115968009258e-06,0.0,4.915039,1417.0,0.0,1569.0,5.0,1500.0,,,,,,,,,,,,,,,,
1.1001340000000002,-9.6076078414917,0.0,0.0,0.0,0.0,-6.955297716067784e-06,0.014879998750984669,1491.0,0.0,0.0,1019.0,0.0,-0.05305800926062762,0.0,5.0,1.868711233139038,0.0,1500.0,0.0,4.975441,0.0,0.0,0.0,1602.0,1500.0,-1.6623745144124098e-06,0.0,0.008028514559173916,0.0,0.0,1.0,0.1608741730451584,1.824586096572734e-06,0.0,5.015027,1418.0,0.0,1568.0,5.0,1500.0,,,,,,,,,,,,,,,,
1.2001339999999998,-9.63538932800293,0.0,0.0,0.0,0.0,2.7430389569955573e-06,0.006316922605037689,1491.0,0.0,0.0,1020.0,0.0,-0.05305800926062762,0.0,5.0,1.8661912679672241,0.0,1500.0,0.0,5.095901,0.0,0.0,0.0,1602.0,1500.0,-6.860010826351434e-07,0.0,0.008028514559173916,0.0,0.0,1.0,0.1715991199016571,-1.2387633708952487e-05,0.0,5.1150269999999995,1418.0,0.0,1568.0,5.0,1500.0,,,,,,,,,,,,,,,,
1.3001330000000002,-9.614453315734863,0.0,0.0,0.0,0.0,9.060840150520358e-06,0.015201769769191742,1491.0,0.0,0.0,1020.0,0.0,-0.05305800926062762,0.0,5.0,1.8672372102737427,0.0,1500.0,0.0,5.175319,0.0,0.0,0.0,1602.0,1500.0,-1.3914395463437996e-07,0.0,0.008028514559173916,0.0,0.0,1.0,0.17696158587932587,-7.980693062820451e-07,0.0,5.215026,1418.0,0.0,1568.0,5.0,1500.0,,,,,,,,,,,,,,,,
1.4001519999999998,-9.623637199401855,0.0,0.0,0.0,0.0,-2.6035292982392437e-05,0.008677244186401367,1490.0,0.0,0.0,1020.0,0.0,-0.05305800926062762,0.0,5.0,1.8621752262115479,0.0,1500.0,0.0,5.295434,0.0,0.0,0.0,1603.0,1500.0,-1.5192358536999475e-06,0.0,0.008028514559173916,0.0,0.0,1.0,0.01608741655945778,-1.4891793890291375e-05,0.0,5.315045,1417.0,0.0,1568.0,5.0,1500.0,,,,,,,,,,,,,,,,
1.5001380000000002,-9.620033264160156,0.0,0.0,0.0,0.0,2.4128866905427452e-05,0.008833617903292179,1490.0,0.0,0.0,1019.0,0.0,-0.05305800926062762,0.0,5.0,1.8546979427337646,0.0,1500.0,0.0,5.37543,0.0,0.0,0.0,1603.0,1500.0,7.265417554438765e-06,0.0,0.008028514559173916,0.0,0.0,1.0,0.09920573979616165,1.0762893524065724e-05,0.0,5.415031,1417.0,0.0,1569.0,5.0,1500.0,,,,,,,,,,,,,,,,
1.6001059999999998,-9.619068145751953,0.0,0.0,0.0,0.0,-5.85828237018166e-06,0.018552221357822418,1491.0,0.0,0.0,1019.0,0.0,-0.05305800926062762,0.0,5.0,1.8638806343078613,0.0,1500.0,0.0,5.49526,0.0,0.0,0.0,1602.0,1500.0,1.0288585005307326e-05,0.0,0.008028514559173916,0.0,0.0,1.0,0.15283046662807465,1.87820636181804e-06,0.0,5.5149989999999995,1418.0,0.0,1568.0,5.0,1500.0,,,,,,,,,,,,,,,,
1.700155,-9.631105422973633,0.0,0.0,0.0,0.0,1.669496334874342e-05,0.012026388198137283,1491.0,0.0,0.0,1020.0,0.0,-0.05305800926062762,0.0,5.0,1.8536821603775024,0.0,1500.0,0.0,5.575943,0.0,0.0,0.0,1602.0,1500.0,-5.478416896466285e-06,0.0,0.008028514559173916,0.0,0.0,1.0,0.1715991199016571,-5.900899510435979e-06,0.0,5.615048,1418.0,0.0,1568.0,5.0,1500.0,,,,,,,,,,,,,,,,
1.8001229999999997,-9.614862442016602,0.0,0.0,0.0,0.0,6.773118191051379e-06,0.013064496219158173,1490.0,0.0,0.0,1020.0,0.0,-0.05305800926062762,0.0,5.0,1.8486177921295166,0.0,1500.0,0.0,5.69595,0.0,0.0,0.0,1603.0,1500.0,-4.935605714773204e-06,0.0,0.008028514559173916,0.0,0.0,1.0,0.1850053071975708,-4.369481308022467e-06,0.0,5.715015999999999,1417.0,0.0,1568.0,5.0,1501.0,,,,,,,,,,,,,,,,
1.9000270000000001,-9.636902809143066,0.0,0.0,0.0,0.0,6.242968616130121e-07,0.015031542629003525,1490.0,0.0,0.0,1019.0,0.0,-0.05305800926062762,0.0,5.0,1.8657852411270142,0.0,1500.0,0.0,5.7754959999999995,0.0,0.0,0.0,1603.0,1500.0,8.61209104562049e-06,0.0,0.008028514559173916,0.0,0.0,1.0,0.1447867602109909,4.5262888555592485e-06,0.0,5.81492,1417.0,0.0,1569.0,5.0,1500.0,,,,,,,,,,,,,,,,
2.0001399999999996,-9.612112045288086,0.0,0.0,0.0,0.0,7.211583185037066e-06,0.012068827636539936,1491.0,0.0,0.0,1019.0,0.0,-0.05305800926062762,0.0,5.0,1.8464226722717285,0.0,1500.0,0.0,5.895436999999999,0.0,0.0,0.0,1602.0,1500.0,-7.804499310945048e-06,0.0,0.008028514559173916,0.0,0.0,1.0,0.12869933247566223,-1.6064496452345917e-06,0.0,5.915032999999999,1418.0,0.0,1568.0,5.0,1500.0,,,,,,,,,,,,,,,,
2.100147,-9.61221694946289,0.0,0.0,0.0,0.0,-1.452807283508758e-05,0.00831009540706873,1491.0,0.0,0.0,1019.0,0.0,-0.05305800926062762,0.0,5.0,1.8545904159545898,0.0,1500.0,0.0,5.975461999999999,0.0,0.0,0.0,1602.0,1500.0,3.7184911440500767e-06,0.0,0.008028514559173916,0.0,0.0,1.0,0.08848079293966293,-1.0834091918336058e-05,0.0,6.01504,1418.0,0.0,1568.0,5.0,1500.0,,,,,,,,,,,,,,,,
2.2001510000000004,-9.633291244506836,0.0,0.0,0.0,0.0,5.72720541823699e-06,0.009611262008547783,1491.0,0.0,0.0,1020.0,0.0,-0.05305800926062762,0.0,5.0,1.8594480752944946,0.0,1500.0,0.0,6.0954369999999995,0.0,0.0,0.0,1602.0,1500.0,2.068392506056559e-07,0.0,0.008028514559173916,0.0,0.0,1.0,0.18232406675815582,-4.077483113379575e-06,0.0,6.115044,1418.0,0.0,1568.0,5.0,1500.0,,,,,,,,,,,,,,,,
2.3001289999999996,-9.605278015136719,0.0,0.0,0.0,0.0,2.2928193146514253e-05,0.010517842136323452,1491.0,0.0,0.0,1020.0,0.0,-0.05305800926062762,0.0,5.0,1.8533028364181519,0.0,1500.0,0.0,6.1753849999999995,0.0,0.0,0.0,1602.0,1500.0,-1.5353646271154014e-05,0.0,0.008028514559173916,0.0,0.0,1.0,-0.01608741655945778,1.6739922681797566e-06,0.0,6.215021999999999,1418.0,0.0,1568.0,5.0,1500.0,,,,,,,,,,,,,,,,
2.4000239999999997,-9.619128227233887,0.0,0.0,0.0,0.0,4.3273553628315694e-06,0.01634938456118107,1490.0,0.0,0.0,1019.0,0.0,-0.05305800926062762,0.0,5.0,1.8738899230957031,0.0,1500.0,0.0,6.295464,0.0,0.0,0.0,1603.0,1500.0,-1.692158739171906e-07,0.0,0.008028514559173916,0.0,0.0,1.0,0.15551170706748962,2.44701215010035e-06,0.0,6.3149169999999994,1417.0,0.0,1569.0,5.0,1500.0,,,,,,,,,,,,,,,,
2.500155,-9.625349044799805,0.0,0.0,0.0,0.0,-5.7910861743649886e-06,0.008361692540347576,1490.0,0.0,0.0,1019.0,0.0,-0.05305800926062762,0.0,5.0,1.8668951988220215,0.0,1500.0,0.0,6.37545,0.0,0.0,0.0,1603.0,1500.0,-4.76039028936331e-06,0.0,0.008028514559173916,0.0,0.0,1.0,0.08848079293966293,3.0574896424303684e-06,0.0,6.415048,1417.0,0.0,1569.0,5.0,1500.0,,,,,,,,,,,,,,,,
2.600106,-9.615053176879883,0.0,0.0,0.0,0.0,-1.3771977848633008e-05,0.024400945752859116,1491.0,0.0,0.0,1019.0,0.0,-0.05305800926062762,0.0,5.0,1.8572001457214355,0.0,1500.0,0.0,6.49527,0.0,0.0,0.0,1602.0,1500.0,-4.3993664893681625e-06,0.0,0.008028514559173916,0.0,0.0,1.0,0.08311832696199417,-6.7296700320548105e-06,0.0,6.5149989999999995,1418.0,0.0,1568.0,5.0,1500.0,,,,,,,,,,,,,,,,
2.7001509999999995,-9.618371963500977,0.0,0.0,0.0,0.0,1.2127678499822209e-06,0.009648964740335941,1491.0,0.0,0.0,1019.0,0.0,-0.05305800926062762,0.0,5.0,1.8627064228057861,0.0,1500.0,0.0,6.575927999999999,0.0,0.0,0.0,1602.0,1500.0,-6.642407476584191e-06,0.0,0.008028514559173916,0.0,0.0,1.0,0.12333686649799347,-5.060645589852565e-06,0.0,6.615043999999999,1418.0,0.0,1568.0,5.0,1500.0,,,,,,,,,,,,,,,,
2.800163,-9.616971015930176,0.0,0.0,0.0,0.0,-1.4488355625150809e-05,0.010151631198823452,1491.0,0.0,0.0,1020.0,0.0,-0.05305800926062762,0.0,5.0,1.8634586334228516,0.0,1500.0,0.0,6.695462,0.0,0.0,0.0,1602.0,1500.0,-1.4999252334620878e-05,0.0,0.008028514559173916,0.0,0.0,1.0,0.17428036034107208,-1.3488893295120317e-06,0.0,6.715056,1418.0,0.0,1568.0,5.0,1500.0,,,,,,,,,,,,,,,,
2.9000299999999997,-9.624650955200195,0.0,0.0,0.0,0.0,-1.727049970309511e-05,0.022915847599506378,1491.0,0.0,0.0,1020.0,0.0,-0.05305800926062762,0.0,5.0,1.8494458198547363,0.0,1500.0,0.0,6.7754509999999994,0.0,0.0,0.0,1602.0,1500.0,-1.0295242298483324e-05,0.0,0.008028514559173916,0.0,0.0,1.0,0.042899779975414276,-2.870724529580427e-06,0.0,6.814922999999999,1418.0,0.0,1568.0,5.0,1500.0,,,,,,,,,,,,,,,,
3.000125,-9.6177339553833,0.0,0.0,0.0,0.0,-7.00747125438444e-08,0.008548750542104244,1490.0,0.0,0.0,1019.0,0.0,-0.05305800926062762,0.0,5.0,1.8604507446289062,0.0,1500.0,0.0,6.895467999999999,0.0,0.0,0.0,1603.0,1500.0,2.092082572207983e-06,0.0,0.008028514559173916,0.0,0.0,1.0,-0.09116203337907791,2.4603224188121824e-06,0.0,6.915018,1417.0,0.0,1569.0,5.0,1500.0,,,,,,,,,,,,,,,,
3.100163,-9.62985610961914,0.0,0.0,0.0,0.0,8.808545704936078e-06,0.014973055571317673,1490.0,0.0,0.0,1019.0,0.0,-0.05305800926062762,0.0,5.0,1.8708293437957764,0.0,1500.0,0.0,6.975465,0.0,0.0,0.0,1603.0,1500.0,-1.2741722870885775e-05,0.0,0.008028514559173916,0.0,0.0,1.0,0.1608741730451584,-8.31414542864041e-06,0.0,7.0150559999999995,1417.0,0.0,1569.0,5.0,1500.0,,,,,,,,,,,,,,,,
3.2001630000000003,-9.618669509887695,0.0,0.0,0.0,0.0,2.0139487271435242e-05,0.01902332901954651,1491.0,0.0,0.0,1020.0,0.0,-0.05305800926062762,0.0,5.0,1.853623628616333,0.0,1500.0,0.0,7.095467999999999,0.0,0.0,0.0,1602.0,1500.0,-1.2861275787252552e-05,0.0,0.008028514559173916,0.0,0.0,1.0,0.1447867602109909,-2.6180275275455144e-06,0.0,7.115056,1418.0,0.0,1568.0,5.0,1500.0,,,,,,,,,,,,,,,,
3.3001340000000003,-9.617777824401855,0.0,0.0,0.0,0.0,7.425680737980148e-06,0.00997127778828144,1491.0,0.0,0.0,1020.0,0.0,-0.05305800926062762,0.0,5.0,1.8664751052856445,0.0,1500.0,0.0,7.175428999999999,0.0,0.0,0.0,1602.0,1500.0,3.2049997868199737e-06,0.0,0.008028514559173916,0.0,0.0,1.0,0.28421103954315186,6.845679435740696e-07,0.0,7.215027,1418.0,0.0,1568.0,5.0,1500.0,,,,,,,,,,,,,,,,
3.400153,-9.621708869934082,0.0,0.0,0.0,0.0,2.2243796384673766e-06,0.0189678817987442,1490.0,0.0,0.0,1020.0,0.0,-0.05305800926062762,0.0,5.0,1.8600621223449707,0.0,1500.0,0.0,7.295436,0.0,0.0,0.0,1603.0,1500.0,1.2797056731318722e-05,0.0,0.008028514559173916,0.0,0.0,1.0,0.19304901361465454,-7.109792532349391e-06,0.0,7.315046,1417.0,0.0,1568.0,5.0,1501.0,,,,,,,,,,,,,,,,
3.500143,-9.635498046875,0.0,0.0,0.0,0.0,-7.823096149070066e-06,0.010499942116439342,1490.0,0.0,0.0,1019.0,0.0,-0.05305800926062762,0.0,5.0,1.8600709438323975,0.0,1500.0,0.0,7.375451,0.0,0.0,0.0,1603.0,1500.0,-5.084955427851721e-06,0.0,0.008028514559173916,0.0,0.0,1.0,0.33783575892448425,2.5200408428321835e-07,0.0,7.415036,1417.0,0.0,1569.0,5.0,1500.0,,,,,,,,,,,,,,,,
3.600049,-9.619922637939453,0.0,0.0,0.0,0.0,3.509032768474337e-06,0.01924700103700161,1491.0,0.0,0.0,1019.0,0.0,-0.05305800926062762,0.0,5.0,1.8612483739852905,0.0,1500.0,0.0,7.4954019999999995,0.0,0.0,0.0,1602.0,1500.0,-1.6818259913111657e-05,0.0,0.008028514559173916,0.0,0.0,1.0,0.13674305379390717,-1.1957198509757444e-05,0.0,7.514942,1418.0,0.0,1568.0,5.0,1500.0,,,,,,,,,,,,,,,,
3.7001269999999997,-9.622869491577148,0.0,0.0,0.0,0.0,6.78317727671934e-06,0.008908264338970184,1491.0,0.0,0.0,1020.0,0.0,-0.05305800926062762,0.0,5.0,1.8619033098220825,0.0,1500.0,0.0,7.575898,0.0,0.0,0.0,1602.0,1500.0,2.582315563808404e-06,0.0,0.008028514559173916,0.0,0.0,1.0,0.19573023915290833,-4.086969984736323e-06,0.0,7.6150199999999995,1418.0,0.0,1568.0,5.0,1500.0,,,,,,,,,,,,,,,,
3.800156,-9.620429039001465,0.0,0.0,0.0,0.0,5.977839858167436e-06,0.017493635416030884,1491.0,0.0,0.0,1020.0,0.0,-0.05305800926062762,0.0,5.0,1.8583143949508667,0.0,1501.0,0.0,7.695478,0.0,0.0,0.0,1602.0,1500.0,1.6684338144256244e-06,0.0,0.008028514559173916,0.0,0.0,1.0,0.23326756060123444,-1.002555233465509e-05,0.0,7.715049,1417.0,0.0,1568.0,5.0,1500.0,,,,,,,,,,,,,,,,
3.9001439999999996,-9.626720428466797,0.0,0.0,0.0,0.0,3.948787720953877e-06,0.0025615771301090717,1490.0,0.0,0.0,1019.0,0.0,-0.05305800926062762,0.0,5.0,1.8595423698425293,0.0,1500.0,0.0,7.775436999999999,0.0,0.0,0.0,1603.0,1500.0,-6.354736319322632e-06,0.0,0.008028514559173916,0.0,0.0,1.0,0.18232406675815582,7.12354180347442e-07,0.0,7.815036999999999,1417.0,0.0,1569.0,5.0,1500.0,,,,,,,,,,,,,,,,
4.000170000000001,-9.632753372192383,0.0,0.0,0.0,0.0,4.204524087685768e-06,0.010967724025249481,1491.0,0.0,0.0,1019.0,0.0,-0.05305800926062762,0.0,5.0,1.8461308479309082,0.0,1500.0,0.0,7.895453,0.0,0.0,0.0,1602.0,1500.0,7.082061091509283e-06,0.0,0.008028514559173916,0.0,0.0,1.0,0.3056609332561493,-9.390093230312088e-06,0.0,7.915063,1418.0,0.0,1568.0,5.0,1500.0,,,,,,,,,,,,,,,,
4.100163,-9.620819091796875,0.0,0.0,0.0,0.0,-4.334915804738449e-06,0.01746445894241333,1491.0,0.0,0.0,1020.0,0.0,-0.05305800926062762,0.0,5.0,1.8706802129745483,0.0,1500.0,0.0,7.975461999999999,0.0,0.0,0.0,1602.0,1500.0,7.628300987450647e-06,0.0,0.008028514559173916,0.0,0.0,1.0,0.28421103954315186,-4.562331944200151e-07,0.0,8.015056,1418.0,0.0,1568.0,5.0,1500.0,,,,,,,,,,,,,,,,
4.200109000000001,-9.620458602905273,0.0,0.0,0.0,0.0,5.5303433768729395e-06,0.018918877467513084,1491.0,0.0,0.0,1020.0,0.0,-0.05305800926062762,0.0,5.0,1.8621779680252075,0.0,1501.0,0.0,8.095502999999999,0.0,0.0,0.0,1602.0,1500.0,1.1469854781363576e-05,0.0,0.008028514559173916,0.0,0.0,1.0,0.23058632016181946,-1.1655313427095505e-06,0.0,8.115002,1417.0,0.0,1568.0,5.0,1500.0,,,,,,,,,,,,,,,,
4.300126000000001,-9.632696151733398,0.0,0.0,0.0,0.0,6.317332348598702e-06,0.006994932424277067,1490.0,0.0,0.0,1020.0,0.0,-0.05305800926062762,0.0,5.0,1.8521698713302612,0.0,1500.0,0.0,8.175328,0.0,0.0,0.0,1603.0,1500.0,-8.224525441639972e-06,0.0,0.008028514559173916,0.0,0.0,1.0,0.3056609332561493,-7.4973779466788984e-06,0.0,8.215019,1417.0,0.0,1568.0,5.0,1500.0,,,,,,,,,,,,,,,,
4.4001529999999995,-9.635795593261719,0.0,0.0,0.0,0.0,-7.719388972107016e-06,0.016704082489013672,1491.0,0.0,0.0,1019.0,0.0,-0.05305800926062762,0.0,5.0,1.8661906719207764,0.0,1500.0,0.0,8.295453,0.0,0.0,0.0,1602.0,1500.0,2.3132481021003585e-06,0.0,0.008028514559173916,0.0,0.0,1.0,0.32711082696914673,-9.330618498982548e-06,0.0,8.315045999999999,1418.0,0.0,1568.0,5.0,1500.0,,,,,,,,,,,,,,,,
4.500148000000001,-9.620033264160156,0.0,0.0,0.0,0.0,-8.611495846224871e-07,0.016742076724767685,1491.0,0.0,0.0,1019.0,0.0,-0.05305800926062762,0.0,5.0,1.8525923490524292,0.0,1500.0,0.0,8.375496,0.0,0.0,0.0,1602.0,1500.0,-1.5930880727984518e-06,0.0,0.008028514559173916,0.0,0.0,1.0,0.2788485586643219,-1.6002782643622833e-05,0.0,8.415041,1418.0,0.0,1568.0,5.0,1500.0,,,,,,,,,,,,,,,,
4.600048000000001,-9.615985870361328,0.0,0.0,0.0,0.0,2.0079668144807874e-05,0.011007998138666153,1491.0,0.0,0.0,1020.0,0.0,-0.05305800926062762,0.0,5.0,1.8636246919631958,0.0,1500.0,0.0,8.495287,0.0,0.0,0.0,1602.0,1500.0,-5.400086776559524e-06,0.0,0.008028514559173916,0.0,0.0,1.0,0.30029845237731934,-4.012807911461307e-06,0.0,8.514941,1418.0,0.0,1568.0,5.0,1500.0,,,,,,,,,,,,,,,,
4.7001290000000004,-9.622191429138184,0.0,0.0,0.0,0.0,1.5590495755933363e-05,0.00814521312713623,1490.0,0.0,0.0,1020.0,0.0,-0.05305800926062762,0.0,5.0,1.863792896270752,0.0,1500.0,0.0,8.575942999999999,0.0,0.0,0.0,1603.0,1500.0,2.0260038832574184e-06,0.0,0.008028514559173916,0.0,0.0,1.0,0.34856072068214417,-3.346100013417124e-06,0.0,8.615022,1417.0,0.0,1568.0,5.0,1500.0,,,,,,,,,,,,,,,,
4.80012,-9.622373580932617,0.0,0.0,0.0,0.0,8.411506690476971e-06,0.014109710231423378,1491.0,0.0,0.0,1019.0,0.0,-0.05305800926062762,0.0,5.0,1.849420428276062,0.0,1500.0,0.0,8.695459999999999,0.0,0.0,0.0,1602.0,1500.0,-2.916503960286994e-06,0.0,0.008028514559173916,0.0,0.0,1.0,0.2895735204219818,-4.351571228662439e-06,0.0,8.715012999999999,1418.0,0.0,1568.0,5.0,1500.0,,,,,,,,,,,,,,,,
4.900112,-9.62646484375,0.0,0.0,0.0,0.0,4.1833059975179385e-07,0.0237157940864563,1491.0,0.0,0.0,1019.0,0.0,-0.05305800926062762,0.0,5.0,1.8586052656173706,0.0,1500.0,0.0,8.775511,0.0,0.0,0.0,1602.0,1500.0,-3.955734803978564e-06,0.0,0.008028514559173916,0.0,0.0,1.0,0.37537306547164917,-1.1786102113064486e-05,0.0,8.815005,1418.0,0.0,1568.0,5.0,1500.0,,,,,,,,,,,,,,,,
5.000148000000001,-9.615546226501465,0.0,0.0,0.0,0.0,1.3426030232176974e-05,0.015738125890493393,1491.0,0.0,0.0,1020.0,0.0,-0.05305800926062762,0.0,5.0,1.851685881614685,0.0,1500.0,0.0,8.895448,0.0,0.0,0.0,1602.0,1500.0,4.6971527981251135e-07,0.0,0.008028514559173916,0.0,0.0,1.0,0.13674305379390717,5.362850431865511e-06,0.0,8.915041,1418.0,0.0,1568.0,5.0,1500.0,,,,,,,,,,,,,,,,
5.100134000000001,-9.624597549438477,0.0,0.0,0.0,0.0,-5.267963939779711e-06,0.013298949226737022,1491.0,0.0,0.0,1020.0,0.0,-0.05305800926062762,0.0,5.0,1.8506574630737305,0.0,1501.0,0.0,8.975444,0.0,0.0,0.0,1602.0,1500.0,5.373779649016036e-06,0.0,0.008028514559173916,0.0,0.0,1.0,0.3405170142650604,2.976430773939641e-06,0.0,9.015027,1417.0,0.0,1568.0,5.0,1500.0,,,,,,,,,,,,,,,,
5.200115,-9.612770080566406,0.0,0.0,0.0,0.0,1.485060766678334e-05,0.00976153090596199,1490.0,0.0,0.0,1019.0,0.0,-0.05305800926062762,0.0,5.0,1.867687702178955,0.0,1500.0,0.0,9.095443999999999,0.0,0.0,0.0,1603.0,1500.0,1.734215017968855e-05,0.0,0.008028514559173916,0.0,0.0,1.0,0.23594878613948822,-5.691348686564952e-06,0.0,9.115008,1417.0,0.0,1569.0,5.0,1500.0,,,,,,,,,,,,,,,,
5.3001190000000005,-9.623912811279297,0.0,0.0,0.0,0.0,-6.181619267032687e-06,0.003550016786903143,1491.0,0.0,0.0,1019.0,0.0,-0.05305800926062762,0.0,5.0,1.8598638772964478,0.0,1500.0,0.0,9.175381,0.0,0.0,0.0,1602.0,1500.0,1.3665532271890331e-05,0.0,0.008028514559173916,0.0,0.0,1.0,0.2654424011707306,-2.3281513260540596e-06,0.0,9.215012,1418.0,0.0,1568.0,5.0,1500.0,,,,,,,,,,,,,,,,
5.40005,-9.6176118850708,0.0,0.0,0.0,0.0,5.044975603801416e-06,0.0018363629933446646,1491.0,0.0,0.0,1020.0,0.0,-0.05305800926062762,0.0,5.0,1.856080174446106,0.0,1500.0,0.0,9.295461,0.0,0.0,0.0,1602.0,1500.0,-2.8658657240170694e-07,0.0,0.008028514559173916,0.0,0.0,1.0,0.36464813351631165,-3.7757240042189063e-06,0.0,9.314943,1418.0,0.0,1568.0,5.0,1500.0,,,,,,,,,,,,,,,,
5.5001560000000005,-9.624686241149902,0.0,0.0,0.0,0.0,1.4663642672591666e-05,0.007876770570874214,1491.0,0.0,0.0,1020.0,0.0,-0.05305800926062762,0.0,5.0,1.8500028848648071,0.0,1500.0,0.0,9.375453,0.0,0.0,0.0,1602.0,1501.0,-5.3063985566087905e-06,0.0,0.008028514559173916,0.0,0.0,1.0,0.34856072068214417,-9.212322269882475e-06,0.0,9.415049,1417.0,0.0,1568.0,5.0,1500.0,,,,,,,,,,,,,,,,
5.600053000000001,-9.61926555633545,0.0,0.0,0.0,0.0,-9.11669720734971e-06,0.011103952303528786,1490.0,0.0,0.0,1019.0,0.0,-0.05305800926062762,0.0,5.0,1.8625203371047974,0.0,1500.0,0.0,9.495458,0.0,0.0,0.0,1603.0,1500.0,-1.1952942840428242e-05,0.0,0.008028514559173916,0.0,0.0,1.0,0.3217483460903168,-1.3281277535979487e-05,0.0,9.514946,1417.0,0.0,1569.0,5.0,1500.0,,,,,,,,,,,,,,,,
5.7001290000000004,-9.610172271728516,0.0,0.0,0.0,0.0,-5.129240320114286e-07,0.014274288900196552,1491.0,0.0,0.0,1019.0,0.0,-0.05305800926062762,0.0,5.0,1.8583778142929077,0.0,1500.0,0.0,9.57591,0.0,0.0,0.0,1602.0,1500.0,-3.9021069193682625e-06,0.0,0.008028514559173916,0.0,0.0,1.0,0.18768653273582458,-1.4421025836467871e-05,0.0,9.615022,1418.0,0.0,1568.0,5.0,1500.0,,,,,,,,,,,,,,,,
5.800152000000001,-9.611353874206543,0.0,0.0,0.0,0.0,-1.0905336028796368e-05,0.009325164370238781,1491.0,0.0,0.0,1020.0,0.0,-0.05305800926062762,0.0,5.0,1.864006757736206,0.0,1500.0,0.0,9.695485,0.0,0.0,0.0,1602.0,1500.0,-1.1296581278112376e-05,0.0,0.008028514559173916,0.0,0.0,1.0,0.211817666888237,-5.185465519262371e-06,0.0,9.715045,1418.0,0.0,1568.0,5.0,1500.0,,,,,,,,,,,,,,,,
5.9000509999999995,-9.616559028625488,0.0,0.0,0.0,0.0,-1.3274588495449339e-06,0.006817042827606201,1491.0,0.0,0.0,1020.0,0.0,-0.05305800926062762,0.0,5.0,1.8618052005767822,0.0,1500.0,0.0,9.775464,0.0,0.0,0.0,1602.0,1501.0,-3.975189328623319e-06,0.0,0.008028514559173916,0.0,0.0,1.0,0.22790507972240448,9.68318556576843e-07,0.0,9.814943999999999,1417.0,0.0,1568.0,5.0,1500.0,,,,,,,,,,,,,,,,
6.000125000000001,-9.632203102111816,0.0,0.0,0.0,0.0,-1.6075814765068914e-05,0.006199419032782316,1490.0,0.0,0.0,1019.0,0.0,-0.05305800926062762,0.0,5.0,1.8647927045822144,0.0,1500.0,0.0,9.895439999999999,0.0,0.0,0.0,1603.0,1500.0,-2.2263565081135195e-05,0.0,0.008028514559173916,0.0,0.0,1.0,0.10724945366382599,-3.038527074785534e-06,0.0,9.915018,1417.0,0.0,1569.0,5.0,1500.0,,,,,,,,,,,,,,,,
6.100148000000001,-9.619180679321289,0.0,0.0,0.0,0.0,6.579938334811152e-06,0.018220096826553345,1491.0,0.0,0.0,1019.0,0.0,-0.05305800926062762,0.0,5.0,1.8548399209976196,0.0,1500.0,0.0,9.975437,0.0,0.0,0.0,1602.0,1500.0,1.0765096028507287e-05,0.0,0.008028514559173916,0.0,0.0,1.0,0.2520362138748169,-9.866218205685574e-06,0.0,10.015041,1418.0,0.0,1568.0,5.0,1500.0,,,,,,,,,,,,,,,,
6.200103,-9.614055633544922,0.0,0.0,0.0,0.0,1.987914677641499e-05,0.01554540079087019,1491.0,0.0,0.0,1020.0,0.0,-0.05305800926062762,0.0,5.0,1.8449406623840332,0.0,1500.0,0.0,10.095442,0.0,0.0,0.0,1602.0,1500.0,5.598526534435451e-06,0.0,0.008028514559173916,0.0,0.0,1.0,0.24131126701831818,-6.317122562082474e-06,0.0,10.114996,1418.0,0.0,1568.0,5.0,1500.0,,,,,,,,,,,,,,,,
6.300136999999999,-9.623133659362793,0.0,0.0,0.0,0.0,2.0143118152834755e-05,0.010998623445630074,1491.0,0.0,0.0,1020.0,0.0,-0.05305800926062762,0.0,5.0,1.8565151691436768,0.0,1500.0,0.0,10.175324999999999,0.0,0.0,0.0,1602.0,1500.0,-1.0566857421867261e-05,0.0,0.008028514559173916,0.0,0.0,1.0,0.24131126701831818,-5.302125616718931e-06,0.0,10.215029999999999,1418.0,0.0,1568.0,5.0,1500.0,,,,,,,,,,,,,,,,
6.4001339999999995,-9.620068550109863,0.0,0.0,0.0,0.0,3.4793049270158125e-07,0.009725330397486687,1490.0,0.0,0.0,1020.0,0.0,-0.05305800926062762,0.0,5.0,1.861457347869873,0.0,1500.0,0.0,10.295437,0.0,0.0,0.0,1603.0,1500.0,2.548441390908373e-06,0.0,0.008028514559173916,0.0,0.0,1.0,0.1715991199016571,-2.16498516444913e-06,0.0,10.315026999999999,1417.0,0.0,1568.0,5.0,1500.0,,,,,,,,,,,,,,,,
6.500192,-9.627578735351562,0.0,0.0,0.0,0.0,-7.1472315521523025e-06,0.020186647772789,1490.0,0.0,0.0,1019.0,0.0,-0.05305800926062762,0.0,5.0,1.8653855323791504,0.0,1500.0,0.0,10.375428999999999,0.0,0.0,0.0,1603.0,1500.0,-1.8857852171903269e-06,0.0,0.008028514559173916,0.0,0.0,1.0,0.23326756060123444,-2.9602304800847563e-06,0.0,10.415085,1417.0,0.0,1569.0,5.0,1500.0,,,,,,,,,,,,,,,,
6.6001080000000005,-9.627365112304688,0.0,0.0,0.0,0.0,-8.600394812393682e-06,0.01790490373969078,1491.0,0.0,0.0,1019.0,0.0,-0.05305800926062762,0.0,5.0,1.8697959184646606,0.0,1500.0,0.0,10.495413,0.0,0.0,0.0,1602.0,1500.0,-3.5986276115702883e-06,0.0,0.008028514559173916,0.0,0.0,1.0,0.2386300265789032,-7.308170319390014e-06,0.0,10.515001,1418.0,0.0,1568.0,5.0,1500.0,,,,,,,,,,,,,,,,
6.700151,-9.616604804992676,0.0,0.0,0.0,0.0,-2.170507984972963e-05,0.003571764100342989,1491.0,0.0,0.0,1020.0,0.0,-0.05305800926062762,0.0,5.0,1.863321304321289,0.0,1500.0,0.0,10.575928,0.0,0.0,0.0,1602.0,1500.0,9.0376661058633e-06,0.0,0.008028514559173916,0.0,0.0,1.0,0.28152981400489807,-5.3853143517049245e-06,0.0,10.615044,1418.0,0.0,1568.0,5.0,1500.0,,,,,,,,,,,,,,,,
6.800140000000001,-9.625120162963867,0.0,0.0,0.0,0.0,-2.449601242073407e-07,0.0043560960330069065,1490.0,0.0,0.0,1020.0,0.0,-0.05305800926062762,0.0,5.0,1.8586217164993286,0.0,1500.0,0.0,10.695514,0.0,0.0,0.0,1603.0,1500.0,-4.046217557075404e-06,0.0,0.008028514559173916,0.0,0.0,1.0,0.2681236267089844,-7.838762071459883e-06,0.0,10.715033,1417.0,0.0,1568.0,5.0,1501.0,,,,,,,,,,,,,,,,
6.900045,-9.617911338806152,0.0,0.0,0.0,0.0,1.5017621099753676e-06,0.01089116558432579,1490.0,0.0,0.0,1019.0,0.0,-0.05305800926062762,0.0,5.0,1.8570191860198975,0.0,1500.0,0.0,10.775461,0.0,0.0,0.0,1603.0,1500.0,8.189838028516014e-06,0.0,0.008028514559173916,0.0,0.0,1.0,0.3592856526374817,8.124547308895472e-07,0.0,10.814938,1417.0,0.0,1569.0,5.0,1500.0,,,,,,,,,,,,,,,,
7.000144000000001,-9.62384033203125,0.0,0.0,0.0,0.0,3.829569802668099e-06,0.012461720034480095,1491.0,0.0,0.0,1019.0,0.0,-0.05305800926062762,0.0,5.0,1.864996075630188,0.0,1500.0,0.0,10.895446,0.0,0.0,0.0,1602.0,1500.0,9.620282628148276e-07,0.0,0.008028514559173916,0.0,0.0,1.0,0.35392317175865173,-8.584573962915608e-06,0.0,10.915037,1418.0,0.0,1568.0,5.0,1500.0,,,,,,,,,,,,,,,,
7.100148000000001,-9.627676010131836,0.0,0.0,0.0,0.0,-1.5643129313411666e-05,0.01467664260417223,1491.0,0.0,0.0,1020.0,0.0,-0.05305800926062762,0.0,5.0,1.8537724018096924,0.0,1500.0,0.0,10.975287999999999,0.0,0.0,0.0,1602.0,1500.0,-3.6998610346979092e-06,0.0,0.008028514559173916,0.0,0.0,1.0,0.19573023915290833,-3.213674687846962e-06,0.0,11.015041,1418.0,0.0,1568.0,5.0,1500.0,,,,,,,,,,,,,,,,
7.200108999999999,-9.621580123901367,0.0,0.0,0.0,0.0,1.5704903061139387e-06,0.02089296653866768,1490.0,0.0,0.0,1020.0,0.0,-0.05305800926062762,0.0,5.0,1.8622832298278809,0.0,1500.0,0.0,11.095847,0.0,0.0,0.0,1603.0,1500.0,2.4630041813120056e-06,0.0,0.008028514559173916,0.0,0.0,1.0,0.16355541348457336,-9.97221677968181e-06,0.0,11.115001999999999,1417.0,0.0,1568.0,5.0,1501.0,,,,,,,,,,,,,,,,
7.300169,-9.616028785705566,0.0,0.0,0.0,0.0,-1.331516847148251e-05,0.010783723555505276,1490.0,0.0,0.0,1019.0,0.0,-0.05305800926062762,0.0,5.0,1.8648957014083862,0.0,1500.0,0.0,11.175431,0.0,0.0,0.0,1603.0,1500.0,-1.0080366046437632e-05,0.0,0.008028514559173916,0.0,0.0,1.0,0.27080485224723816,-9.047244155621168e-06,0.0,11.215062,1417.0,0.0,1569.0,5.0,1500.0,,,,,,,,,,,,,,,,
7.400114,-9.627028465270996,0.0,0.0,0.0,0.0,1.9611099547679933e-05,0.026195835322141647,1491.0,0.0,0.0,1019.0,0.0,-0.05305800926062762,0.0,5.0,1.8651001453399658,0.0,1500.0,0.0,11.295477,0.0,0.0,0.0,1602.0,1500.0,-6.427886794904987e-08,0.0,0.008028514559173916,0.0,0.0,1.0,0.26007992029190063,-9.063611567548303e-06,0.0,11.315007,1418.0,0.0,1568.0,5.0,1500.0,,,,,,,,,,,,,,,,
7.500159,-9.638260841369629,0.0,0.0,0.0,0.0,-6.916634010331152e-06,0.010630309581756592,1491.0,0.0,0.0,1020.0,0.0,-0.05305800926062762,0.0,5.0,1.8461941480636597,0.0,1500.0,0.0,11.375513,0.0,0.0,0.0,1602.0,1500.0,-5.233359831713045e-06,0.0,0.008028514559173916,0.0,0.0,1.0,0.21718013286590576,-4.858717686681387e-06,0.0,11.415052,1418.0,0.0,1568.0,5.0,1500.0,,,,,,,,,,,,,,,,
7.600027000000001,-9.617998123168945,0.0,0.0,0.0,0.0,5.049199271797633e-06,0.013564975000917912,1491.0,0.0,0.0,1020.0,0.0,-0.05305800926062762,0.0,5.0,1.8653764724731445,0.0,1500.0,0.0,11.49526,0.0,0.0,0.0,1602.0,1501.0,-3.877300806729022e-06,0.0,0.008028514559173916,0.0,0.0,1.0,0.38877925276756287,3.528187344117075e-06,0.0,11.51492,1417.0,0.0,1568.0,5.0,1500.0,,,,,,,,,,,,,,,,
7.700162000000001,-9.624035835266113,0.0,0.0,0.0,0.0,1.7190841781848346e-06,0.008495688438415527,1490.0,0.0,0.0,1019.0,0.0,-0.05305800926062762,0.0,5.0,1.8577866554260254,0.0,1500.0,0.0,11.575968999999999,0.0,0.0,0.0,1603.0,1500.0,-6.479136167742314e-06,0.0,0.008028514559173916,0.0,0.0,1.0,0.3029797077178955,-1.634651251690731e-05,0.0,11.615055,1417.0,0.0,1569.0,5.0,1500.0,,,,,,,,,,,,,,,,
7.800113,-9.620556831359863,0.0,0.0,0.0,0.0,5.288401616487805e-06,0.005667058750987053,1491.0,0.0,0.0,1019.0,0.0,-0.05305800926062762,0.0,5.0,1.8593252897262573,0.0,1500.0,0.0,11.695464,0.0,0.0,0.0,1602.0,1500.0,-9.101250214714114e-06,0.0,0.008028514559173916,0.0,0.0,1.0,0.18232406675815582,-3.0111725385339037e-06,0.0,11.715005999999999,1418.0,0.0,1568.0,5.0,1500.0,,,,,,,,,,,,,,,,
7.900118000000001,-9.625423431396484,0.0,0.0,0.0,0.0,2.3152494553060226e-06,0.00426973681896925,1491.0,0.0,0.0,1020.0,0.0,-0.05305800926062762,0.0,5.0,1.8610107898712158,0.0,1500.0,0.0,11.775466999999999,0.0,0.0,0.0,1602.0,1500.0,9.753961847217976e-09,0.0,0.008028514559173916,0.0,0.0,1.0,0.2788485586643219,-5.969159877563784e-06,0.0,11.815011,1418.0,0.0,1568.0,5.0,1500.0,,,,,,,,,,,,,,,,
8.000172000000001,-9.618742942810059,0.0,0.0,0.0,0.0,1.2521251973102218e-05,-0.0013303762534633279,1491.0,0.0,0.0,1020.0,0.0,-0.05305800926062762,0.0,5.0,1.8607782125473022,0.0,1500.0,0.0,11.895441,0.0,0.0,0.0,1602.0,1501.0,3.3367982926297835e-06,0.0,0.008028514559173916,0.0,0.0,1.0,0.22254261374473572,6.63137717585805e-06,0.0,11.915065,1417.0,0.0,1568.0,5.0,1500.0,,,,,,,,,,,,,,,,
8.100046,-9.624242782592773,0.0,0.0,0.0,0.0,-2.495073580623274e-06,0.009664916433393955,1490.0,0.0,0.0,1020.0,0.0,-0.05305800926062762,0.0,5.0,1.854072093963623,0.0,1500.0,0.0,11.975441,0.0,0.0,0.0,1603.0,1500.0,1.7912255958628626e-06,0.0,0.008028514559173916,0.0,0.0,1.0,0.3726918399333954,-1.1889976408099785e-05,0.0,12.014939,1417.0,0.0,1568.0,5.0,1500.0,,,,,,,,,,,,,,,,
8.200155,-9.61859130859375,0.0,0.0,0.0,0.0,1.0875226330162118e-05,0.01375661976635456,1491.0,0.0,0.0,1019.0,0.0,-0.05305800926062762,0.0,5.0,1.8612297773361206,0.0,1500.0,0.0,12.095464,0.0,0.0,0.0,1602.0,1500.0,5.722545922562991e-06,0.0,0.008028514559173916,0.0,0.0,1.0,0.28689226508140564,4.262607522967005e-06,0.0,12.115048,1418.0,0.0,1568.0,5.0,1500.0,,,,,,,,,,,,,,,,
8.300146,-9.622662544250488,0.0,0.0,0.0,0.0,5.766555374780944e-06,0.01452567707747221,1491.0,0.0,0.0,1019.0,0.0,-0.05305800926062762,0.0,5.0,1.8574128150939941,0.0,1500.0,0.0,12.175272999999999,0.0,0.0,0.0,1602.0,1500.0,-1.1421918816384255e-05,0.0,0.008028514559173916,0.0,0.0,1.0,0.44240397214889526,-4.649103368102059e-06,0.0,12.215038999999999,1418.0,0.0,1568.0,5.0,1500.0,,,,,,,,,,,,,,,,
8.400051,-9.623381614685059,0.0,0.0,0.0,0.0,1.622799786601068e-05,0.010288628749549389,1491.0,0.0,0.0,1020.0,0.0,-0.05305800926062762,0.0,5.0,1.8667534589767456,0.0,1500.0,0.0,12.295864,0.0,0.0,0.0,1602.0,1501.0,-4.7931489872279e-06,0.0,0.008028514559173916,0.0,0.0,1.0,0.21718013286590576,-5.642691421699327e-06,0.0,12.314943999999999,1417.0,0.0,1568.0,5.0,1500.0,,,,,,,,,,,,,,,,
8.500161,-9.613785743713379,0.0,0.0,0.0,0.0,1.2747708644026775e-05,0.007398952730000019,1490.0,0.0,0.0,1020.0,0.0,-0.05305800926062762,0.0,5.0,1.8589489459991455,0.0,1500.0,0.0,12.375472,0.0,0.0,0.0,1603.0,1500.0,-1.2801821374229669e-05,0.0,0.008028514559173916,0.0,0.0,1.0,0.3834167718887329,-1.339220329933992e-05,0.0,12.415054,1417.0,0.0,1568.0,5.0,1500.0,,,,,,,,,,,,,,,,
8.600053,-9.609649658203125,0.0,0.0,0.0,0.0,-2.6700896326491006e-06,0.007956228218972683,1491.0,0.0,0.0,1019.0,0.0,-0.05305800926062762,0.0,5.0,1.850693941116333,0.0,1500.0,0.0,12.4954,0.0,0.0,0.0,1602.0,1500.0,1.1900789810902368e-05,0.0,0.008028514559173916,0.0,0.0,1.0,0.3297920525074005,-2.2602354177187897e-08,0.0,12.514946,1418.0,0.0,1568.0,5.0,1500.0,,,,,,,,,,,,,,,,
8.700162,-9.635507583618164,0.0,0.0,0.0,0.0,5.253025412768194e-06,0.008845413103699684,1491.0,0.0,0.0,1019.0,0.0,-0.05305800926062762,0.0,5.0,1.867945671081543,0.0,1500.0,0.0,12.575901,0.0,0.0,0.0,1602.0,1500.0,-1.1490200517734051e-05,0.0,0.008028514559173916,0.0,0.0,1.0,0.32442957162857056,-1.9882174204106805e-05,0.0,12.615055,1418.0,0.0,1568.0,5.0,1500.0,,,,,,,,,,,,,,,,
8.800143,-9.622076034545898,0.0,0.0,0.0,0.0,9.315804421599302e-06,0.014355926774442196,1491.0,0.0,0.0,1020.0,0.0,-0.05305800926062762,0.0,5.0,1.858412504196167,0.0,1500.0,0.0,12.695383999999999,0.0,0.0,0.0,1602.0,1500.0,4.413942842563527e-06,0.0,0.008028514559173916,0.0,0.0,1.0,0.26007992029190063,-3.07007581748873e-06,0.0,12.715036,1418.0,0.0,1568.0,5.0,1500.0,,,,,,,,,,,,,,,,
8.900129,-9.618328094482422,0.0,0.0,0.0,0.0,1.2263678831448582e-05,0.013942625373601913,1490.0,0.0,0.0,1020.0,0.0,-0.05305800926062762,0.0,5.0,1.8589564561843872,0.0,1500.0,0.0,12.775450999999999,0.0,0.0,0.0,1603.0,1500.0,-4.502762288281701e-06,0.0,0.008028514559173916,0.0,0.0,1.0,0.4370415210723877,1.2729737863725612e-06,0.0,12.815021999999999,1417.0,0.0,1568.0,5.0,1501.0,,,,,,,,,,,,,,,,
9.000126,-9.611655235290527,0.0,0.0,0.0,0.0,-3.2417274119110752e-06,0.006655991077423096,1491.0,0.0,0.0,1019.0,0.0,-0.05305800926062762,0.0,5.0,1.8389320373535156,0.0,1500.0,0.0,12.895451,0.0,0.0,0.0,1602.0,1500.0,5.3658666844886664e-06,0.0,0.008028514559173916,0.0,0.0,1.0,0.2654424011707306,-1.0448696182517035e-06,0.0,12.915019,1418.0,0.0,1568.0,5.0,1500.0,,,,,,,,,,,,,,,,
9.100134,-9.619874954223633,0.0,0.0,0.0,0.0,-6.2973101812617326e-06,0.016581976786255836,1491.0,0.0,0.0,1019.0,0.0,-0.05305800926062762,0.0,5.0,1.8624048233032227,0.0,1500.0,0.0,12.975498,0.0,0.0,0.0,1602.0,1500.0,-1.145578130625796e-05,0.0,0.008028514559173916,0.0,0.0,1.0,0.3726918399333954,-3.70942892530245e-06,0.0,13.015027,1418.0,0.0,1568.0,5.0,1500.0,,,,,,,,,,,,,,,,
9.200131,-9.622869491577148,0.0,0.0,0.0,0.0,6.26958077225229e-06,0.013973884284496307,1491.0,0.0,0.0,1020.0,0.0,-0.05305800926062762,0.0,5.0,1.862231969833374,0.0,1500.0,0.0,13.095454,0.0,0.0,0.0,1602.0,1500.0,-7.31324227668914e-06,0.0,0.008028514559173916,0.0,0.0,1.0,0.345879465341568,8.684070297813515e-07,0.0,13.115024,1418.0,0.0,1568.0,5.0,1500.0,,,,,,,,,,,,,,,,
9.300114,-9.628849029541016,0.0,0.0,0.0,0.0,-1.160380524982714e-06,0.010465510189533234,1491.0,0.0,0.0,1020.0,0.0,-0.05305800926062762,0.0,5.0,1.8630238771438599,0.0,1501.0,0.0,13.175322,0.0,0.0,0.0,1602.0,1500.0,-1.11370378705843e-06,0.0,0.008028514559173916,0.0,0.0,1.0,0.2922547459602356,-1.4002278743176973e-05,0.0,13.215007,1417.0,0.0,1568.0,5.0,1500.0,,,,,,,,,,,,,,,,
9.400125000000001,-9.62191390991211,0.0,0.0,0.0,0.0,8.606816413212466e-06,0.008645549416542053,1490.0,0.0,0.0,1019.0,0.0,-0.05305800926062762,0.0,5.0,1.8368206024169922,0.0,1500.0,0.0,13.295449,0.0,0.0,0.0,1603.0,1500.0,1.8058758568986904e-05,0.0,0.008028514559173916,0.0,0.0,1.0,0.37805432081222534,-7.870928998643105e-06,0.0,13.315018,1417.0,0.0,1569.0,5.0,1500.0,,,,,,,,,,,,,,,,
9.500127,-9.624967575073242,0.0,0.0,0.0,0.0,2.685454082163904e-06,0.010869655758142471,1491.0,0.0,0.0,1019.0,0.0,-0.05305800926062762,0.0,5.0,1.8617920875549316,0.0,1500.0,0.0,13.375444,0.0,0.0,0.0,1602.0,1500.0,-1.6434092545919437e-05,0.0,0.008028514559173916,0.0,0.0,1.0,0.3297920525074005,-1.7189263049421137e-05,0.0,13.41502,1418.0,0.0,1568.0,5.0,1500.0,,,,,,,,,,,,,,,,
9.600509,-9.621253967285156,0.0,0.0,0.0,0.0,9.297429560974506e-06,0.02221643179655075,1491.0,0.0,0.0,1020.0,0.0,-0.05305800926062762,0.0,5.0,1.8619976043701172,0.0,1500.0,0.0,13.495331,0.0,0.0,0.0,1602.0,1500.0,-7.2277113489033195e-06,0.0,0.008028514559173916,0.0,0.0,1.0,0.3297920525074005,-1.3161622012164094e-05,0.0,13.515402,1418.0,0.0,1568.0,5.0,1500.0,,,,,,,,,,,,,,,,
9.700152,-9.624313354492188,0.0,0.0,0.0,0.0,-2.06401562532921e-06,0.01781630888581276,1491.0,0.0,0.0,1020.0,0.0,-0.05305800926062762,0.0,5.0,1.8566477298736572,0.0,1501.0,0.0,13.575875,0.0,0.0,0.0,1602.0,1500.0,4.639018884550777e-06,0.0,0.008028514559173916,0.0,0.0,1.0,0.41559162735939026,7.95492589427636e-06,0.0,13.615044999999999,1417.0,0.0,1568.0,5.0,1500.0,,,,,,,,,,,,,,,,
9.800172,-9.625679016113281,0.0,0.0,0.0,0.0,9.724691040669806e-06,0.022596947848796844,1490.0,0.0,0.0,1019.0,0.0,-0.05305800926062762,0.0,5.0,1.8419508934020996,0.0,1500.0,0.0,13.695443,0.0,0.0,0.0,1603.0,1500.0,-1.3360693669377038e-05,0.0,0.008028514559173916,0.0,0.0,1.0,0.3995042145252228,4.19342114901333e-06,0.0,13.715065,1417.0,0.0,1569.0,5.0,1500.0,,,,,,,,,,,,,,,,
9.900156,-9.609980583190918,0.0,0.0,0.0,0.0,8.031198785634151e-06,0.00740136718377471,1491.0,0.0,0.0,1019.0,0.0,-0.05305800926062762,0.0,5.0,1.8543246984481812,0.0,1500.0,0.0,13.775452999999999,0.0,0.0,0.0,1602.0,1500.0,4.728285840973059e-06,0.0,0.008028514559173916,0.0,0.0,1.0,0.4370415210723877,2.611641991721046e-06,0.0,13.815049,1418.0,0.0,1568.0,5.0,1500.0,,,,,,,,,,,,,,,,
10.00004,-9.615358352661133,0.0,0.0,0.0,0.0,-7.143452347114196e-06,0.02986765094101429,1491.0,0.0,0.0,1020.0,0.0,-0.05305800926062762,0.0,5.0,1.8653326034545898,0.0,1500.0,0.0,13.895456999999999,0.0,0.0,0.0,1602.0,1500.0,-6.7410371087137835e-06,0.0,0.008028514559173916,0.0,0.0,1.0,0.2895735204219818,-1.4185131312101374e-05,0.0,13.914933,1418.0,0.0,1568.0,5.0,1500.0,,,,,,,,,,,,,,,,
10.10015,-9.61861515045166,0.0,0.0,0.0,0.0,1.7348877571022514e-05,0.011042822152376175,1491.0,0.0,0.0,1020.0,0.0,-0.05305800926062762,0.0,5.0,1.86129629611969,0.0,1501.0,0.0,13.975465999999999,0.0,0.0,0.0,1602.0,1500.0,6.399251697376332e-06,0.0,0.008028514559173916,0.0,0.0,1.0,0.3941417336463928,-7.90631028193938e-06,0.0,14.015042999999999,1417.0,0.0,1568.0,5.0,1500.0,,,,,,,,,,,,,,,,
10.200104,-9.622310638427734,0.0,0.0,0.0,0.0,5.143519391085384e-06,0.02245597541332245,1490.0,0.0,0.0,1019.0,0.0,-0.05305800926062762,0.0,5.0,1.860367774963379,0.0,1500.0,0.0,14.095289999999999,0.0,0.0,0.0,1603.0,1500.0,5.269991706784028e-06,0.0,0.008028514559173916,0.0,0.0,1.0,0.4343602657318115,-4.576202807691578e-06,0.0,14.114996999999999,1417.0,0.0,1569.0,5.0,1500.0,,,,,,,,,,,,,,,,
10.300045,-9.631102561950684,0.0,0.0,0.0,0.0,1.1674802492861575e-05,0.007634179666638374,1491.0,0.0,0.0,1019.0,0.0,-0.05305800926062762,0.0,5.0,1.857729196548462,0.0,1500.0,0.0,14.175331,0.0,0.0,0.0,1602.0,1500.0,-1.917840901644602e-06,0.0,0.008028514559173916,0.0,0.0,1.0,0.3056609332561493,-1.3751441120179963e-05,0.0,14.214938,1418.0,0.0,1568.0,5.0,1500.0,,,,,,,,,,,,,,,,
10.40015,-9.609792709350586,0.0,0.0,0.0,0.0,1.5419420693462396e-05,0.017579054459929466,1491.0,0.0,0.0,1020.0,0.0,-0.05305800926062762,0.0,5.0,1.874406337738037,0.0,1500.0,0.0,14.295434,0.0,0.0,0.0,1602.0,1500.0,-1.06965979371916e-05,0.0,0.008028514559173916,0.0,0.0,1.0,0.35124194622039795,-1.5259915890716968e-05,0.0,14.315043,1418.0,0.0,1568.0,5.0,1500.0,,,,,,,,,,,,,,,,
10.500127,-9.629804611206055,0.0,0.0,0.0,0.0,-3.4624157155758562e-06,0.016144663095474243,1491.0,0.0,0.0,1020.0,0.0,-0.05305800926062762,0.0,5.0,1.8659073114395142,0.0,1500.0,0.0,14.375459,0.0,0.0,0.0,1602.0,1500.0,2.9987971659071034e-06,0.0,0.008028514559173916,0.0,0.0,1.0,0.25739866495132446,2.7313823444667297e-06,0.0,14.41502,1418.0,0.0,1568.0,5.0,1500.0,,,,,,,,,,,,,,,,
10.600155,-9.618844985961914,0.0,0.0,0.0,0.0,1.3274063521201102e-05,0.00677629467099905,1490.0,0.0,0.0,1019.0,0.0,-0.05305800926062762,0.0,5.0,1.8561124801635742,0.0,1500.0,0.0,14.495453,0.0,0.0,0.0,1603.0,1500.0,-1.2244199670857005e-05,0.0,0.008028514559173916,0.0,0.0,1.0,0.3860980272293091,-5.801829479009607e-06,0.0,14.515048,1417.0,0.0,1569.0,5.0,1500.0,,,,,,,,,,,,,,,,
10.700148,-9.624955177307129,0.0,0.0,0.0,0.0,-2.50114703995644e-08,0.009780693799257278,1491.0,0.0,0.0,1019.0,0.0,-0.05305800926062762,0.0,5.0,1.8511106967926025,0.0,1500.0,0.0,14.576048,0.0,0.0,0.0,1602.0,1500.0,-1.0442876130564702e-05,0.0,0.008028514559173916,0.0,0.0,1.0,0.2922547459602356,-9.463331963538982e-07,0.0,14.615041,1418.0,0.0,1568.0,5.0,1500.0,,,,,,,,,,,,,,,,
10.800102,-9.622724533081055,0.0,0.0,0.0,0.0,1.586654941340641e-05,0.009679625742137432,1491.0,0.0,0.0,1019.0,0.0,-0.05305800926062762,0.0,5.0,1.8552707433700562,0.0,1500.0,0.0,14.695440999999999,0.0,0.0,0.0,1602.0,1500.0,6.8673544973241715e-06,0.0,0.008028514559173916,0.0,0.0,1.0,0.4343602657318115,3.2820059150692314e-06,0.0,14.714995,1418.0,0.0,1568.0,5.0,1500.0,,,,,,,,,,,,,,,,
10.900138,-9.627163887023926,0.0,0.0,0.0,0.0,7.5803599428946625e-06,0.002756741363555193,1491.0,0.0,0.0,1019.0,0.0,-0.05305800926062762,0.0,5.0,1.8559318780899048,0.0,1500.0,0.0,14.775454,0.0,0.0,0.0,1602.0,1500.0,-2.6336599247293498e-06,0.0,0.008028514559173916,0.0,0.0,1.0,0.33515453338623047,-1.2282714037039712e-05,0.0,14.815031,1418.0,0.0,1568.0,5.0,1500.0,,,,,,,,,,,,,,,,
11.000149,-9.628009796142578,0.0,0.0,0.0,0.0,7.561968827624542e-06,0.005760842002928257,1491.0,0.0,0.0,1020.0,0.0,-0.05305800926062762,0.0,5.0,1.8580130338668823,0.0,1500.0,0.0,14.895443,0.0,0.0,0.0,1602.0,1500.0,-8.637177042933923e-06,0.0,0.008028514559173916,0.0,0.0,1.0,0.3566044270992279,-1.3684667037184078e-05,0.0,14.915042,1418.0,0.0,1568.0,5.0,1500.0,,,,,,,,,,,,,,,,
11.100164,-9.62587833404541,0.0,0.0,0.0,0.0,-5.8728267220440416e-06,0.010609934106469154,1491.0,0.0,0.0,1020.0,0.0,-0.05305800926062762,0.0,5.0,1.8560283184051514,0.0,1500.0,0.0,14.975278999999999,0.0,0.0,0.0,1602.0,1500.0,-9.33033912226602e-06,0.0,0.008028514559173916,0.0,0.0,1.0,0.44508522748947144,-5.9644297757741535e-06,0.0,15.015056999999999,1418.0,0.0,1568.0,5.0,1500.0,,,,,,,,,,,,,,,,
11.200152,-9.622306823730469,0.0,0.0,0.0,0.0,-2.426000481229209e-06,0.021151350811123848,1490.0,0.0,0.0,1020.0,0.0,-0.05305800926062762,0.0,5.0,1.8468629121780396,0.0,1500.0,0.0,15.095478,0.0,0.0,0.0,1603.0,1500.0,-2.9300153802347257e-06,0.0,0.008028514559173916,0.0,0.0,1.0,0.36196690797805786,3.444283468231481e-07,0.0,15.115044999999999,1417.0,0.0,1568.0,5.0,1500.0,,,,,,,,,,,,,,,,
11.30012,-9.626628875732422,0.0,0.0,0.0,0.0,1.4499133470916742e-05,0.01396492961794138,1491.0,0.0,0.0,1019.0,0.0,-0.05305800926062762,0.0,5.0,1.8528194427490234,0.0,1500.0,0.0,15.175274,0.0,0.0,0.0,1602.0,1500.0,-1.5192169322768737e-06,0.0,0.008028514559173916,0.0,0.0,1.0,0.43167904019355774,-2.7116227912432947e-06,0.0,15.215012999999999,1418.0,0.0,1568.0,5.0,1500.0,,,,,,,,,,,,,,,,
11.400109,-9.62493896484375,0.0,0.0,0.0,0.0,1.8624538326460979e-06,0.014356769621372223,1491.0,0.0,0.0,1020.0,0.0,-0.05305800926062762,0.0,5.0,1.8677082061767578,0.0,1500.0,0.0,15.295430999999999,0.0,0.0,0.0,1602.0,1500.0,-1.044389712547419e-05,0.0,0.008028514559173916,0.0,0.0,1.0,0.3324733078479767,6.282955678577173e-07,0.0,15.315002,1418.0,0.0,1568.0,5.0,1500.0,,,,,,,,,,,,,,,,
11.500133,-9.624347686767578,0.0,0.0,0.0,0.0,1.6757030696002329e-06,0.013246184214949608,1491.0,0.0,0.0,1020.0,0.0,-0.05305800926062762,0.0,5.0,1.8453255891799927,0.0,1500.0,0.0,15.375449,0.0,0.0,0.0,1602.0,1500.0,-1.4538502221894355e-05,0.0,0.008028514559173916,0.0,0.0,1.0,0.3860980272293091,-7.82201521515594e-06,0.0,15.415026,1418.0,0.0,1568.0,5.0,1500.0,,,,,,,,,,,,,,,,
11.600022,-9.611056327819824,0.0,0.0,0.0,0.0,1.31181591223952e-05,0.009884397499263287,1490.0,0.0,0.0,1020.0,0.0,-0.05305800926062762,0.0,5.0,1.8643462657928467,0.0,1500.0,0.0,15.495263,0.0,0.0,0.0,1603.0,1500.0,-1.0643269493625649e-05,0.0,0.008028514559173916,0.0,0.0,1.0,0.15014922618865967,-1.8067869297691673e-05,0.0,15.514914999999998,1417.0,0.0,1568.0,5.0,1500.0,,,,,,,,,,,,,,,,
11.700163,-9.632641792297363,0.0,0.0,0.0,0.0,3.17395976371969e-06,0.010824771597981453,1490.0,0.0,0.0,1019.0,0.0,-0.05305800926062762,0.0,5.0,1.8552567958831787,0.0,1500.0,0.0,15.57594,0.0,0.0,0.0,1603.0,1500.0,5.1603266943516305e-06,0.0,0.008028514559173916,0.0,0.0,1.0,0.3324733078479767,-1.6010505631982963e-06,0.0,15.615056,1417.0,0.0,1569.0,5.0,1500.0,,,,,,,,,,,,,,,,
11.80013,-9.617918014526367,0.0,0.0,0.0,0.0,2.5973635556970322e-06,0.015265492722392082,1491.0,0.0,0.0,1020.0,0.0,-0.05305800926062762,0.0,5.0,1.8652578592300415,0.0,1500.0,0.0,15.695461,0.0,0.0,0.0,1602.0,1500.0,2.551058642784562e-06,0.0,0.008028514559173916,0.0,0.0,1.0,0.3807355463504791,-1.1711695458173094e-06,0.0,15.715022999999999,1418.0,0.0,1568.0,5.0,1500.0,,,,,,,,,,,,,,,,
11.90015,-9.619412422180176,0.0,0.0,0.0,0.0,3.2400686761514063e-06,0.011956623755395412,1491.0,0.0,0.0,1020.0,0.0,-0.05305800926062762,0.0,5.0,1.8563902378082275,0.0,1500.0,0.0,15.775452999999999,0.0,0.0,0.0,1602.0,1500.0,3.442001404920416e-06,0.0,0.008028514559173916,0.0,0.0,1.0,0.36196690797805786,2.5104420937994084e-06,0.0,15.815043,1418.0,0.0,1568.0,5.0,1500.0,,,,,,,,,,,,,,,,
12.00005,-9.629035949707031,0.0,0.0,0.0,0.0,1.627766799846313e-05,0.004350203089416027,1491.0,0.0,0.0,1019.0,0.0,-0.05305800926062762,0.0,5.0,1.8569657802581787,0.0,1500.0,0.0,15.895334,0.0,0.0,0.0,1603.0,1500.0,-9.141862446059104e-06,0.0,0.008028514559173916,0.0,0.0,1.0,0.34856072068214417,-1.0053602772909706e-05,0.0,15.914943,1417.0,0.0,1568.0,5.0,1500.0,,,,,,,,,,,,,,,,
12.100135000000002,-9.615638732910156,0.0,0.0,0.0,0.0,1.3888634072912361e-08,0.011053566820919514,1490.0,0.0,0.0,1019.0,0.0,-0.05305800926062762,0.0,5.0,1.8613675832748413,0.0,1500.0,0.0,15.975446,0.0,0.0,0.0,1603.0,1500.0,-1.077427355364519e-06,0.0,0.008028514559173916,0.0,0.0,1.0,0.46653512120246887,-1.1189116738290878e-05,0.0,16.015028,1417.0,0.0,1569.0,5.0,1501.0,,,,,,,,,,,,,,,,
12.200143,-9.637239456176758,0.0,0.0,0.0,0.0,5.618437459043476e-06,0.00808081217110157,1491.0,0.0,0.0,1020.0,0.0,-0.05305800926062762,0.0,5.0,1.8455426692962646,0.0,1500.0,0.0,16.095458,0.0,0.0,0.0,1602.0,1500.0,2.879617598425139e-06,0.0,0.008028514559173916,0.0,0.0,1.0,0.4343602657318115,1.727241597339165e-06,0.0,16.115036,1418.0,0.0,1568.0,5.0,1500.0,,,,,,,,,,,,,,,,
12.300103,-9.625133514404297,0.0,0.0,0.0,0.0,3.5089073029307334e-06,0.019540127366781235,1491.0,0.0,0.0,1020.0,0.0,-0.05305800926062762,0.0,5.0,1.865964412689209,0.0,1500.0,0.0,16.175454,0.0,0.0,0.0,1602.0,1500.0,-1.7249498193377298e-06,0.0,0.008028514559173916,0.0,0.0,1.0,0.3431982398033142,1.5201031914153465e-06,0.0,16.214996,1418.0,0.0,1568.0,5.0,1500.0,,,,,,,,,,,,,,,,
12.400162000000002,-9.6302490234375,0.0,0.0,0.0,0.0,9.861295079982709e-06,0.01120154932141304,1490.0,0.0,0.0,1019.0,0.0,-0.05305800926062762,0.0,5.0,1.84891939163208,0.0,1500.0,0.0,16.295448,0.0,0.0,0.0,1603.0,1500.0,-6.316771055377317e-06,0.0,0.008028514559173916,0.0,0.0,1.0,0.46653512120246887,5.820654390126843e-06,0.0,16.315055,1417.0,0.0,1569.0,5.0,1500.0,,,,,,,,,,,,,,,,
12.500152,-9.625875473022461,0.0,0.0,0.0,0.0,2.7763121143846892e-05,0.007300526835024357,1490.0,0.0,0.0,1020.0,0.0,-0.05305800926062762,0.0,5.0,1.8572887182235718,0.0,1500.0,0.0,16.375481,0.0,0.0,0.0,1603.0,1501.0,5.093904118060905e-06,0.0,0.008028514559173916,0.0,0.0,1.0,0.36732935905456543,-1.8325840678155776e-05,0.0,16.415045,1417.0,0.0,1568.0,5.0,1500.0,,,,,,,,,,,,,,,,
12.600024999999999,-9.636634826660156,0.0,0.0,0.0,0.0,6.38216044577456e-06,0.0050191995687782764,1491.0,0.0,0.0,1020.0,0.0,-0.05305800926062762,0.0,5.0,1.8603159189224243,0.0,1500.0,0.0,16.495334,0.0,0.0,0.0,1602.0,1500.0,3.646783522219165e-06,0.0,0.008028514559173916,0.0,0.0,1.0,0.35392317175865173,-1.1928555792863793e-05,0.0,16.514917999999998,1418.0,0.0,1568.0,5.0,1500.0,,,,,,,,,,,,,,,,
12.700154000000001,-9.622675895690918,0.0,0.0,0.0,0.0,-1.1545519647394671e-06,0.011132744140923023,1491.0,0.0,0.0,1019.0,0.0,-0.05305800926062762,0.0,5.0,1.8564236164093018,0.0,1500.0,0.0,16.575885,0.0,0.0,0.0,1602.0,1500.0,-6.642546149027122e-06,0.0,0.008028514559173916,0.0,0.0,1.0,0.40218544006347656,1.7955579667996923e-06,0.0,16.615047,1418.0,0.0,1568.0,5.0,1500.0,,,,,,,,,,,,,,,,
12.800146000000002,-9.620307922363281,0.0,0.0,0.0,0.0,9.160309436672529e-06,0.013262900523841381,1490.0,0.0,0.0,1019.0,0.0,-0.05305800926062762,0.0,5.0,1.8542265892028809,0.0,1500.0,0.0,16.695444,0.0,0.0,0.0,1603.0,1500.0,7.2598726885522085e-06,0.0,0.008028514559173916,0.0,0.0,1.0,0.3217483460903168,5.423870370416277e-06,0.0,16.715039,1417.0,0.0,1569.0,5.0,1500.0,,,,,,,,,,,,,,,,
12.900126,-9.621253967285156,0.0,0.0,0.0,0.0,1.4827696744197485e-05,0.015990866348147392,1491.0,0.0,0.0,1020.0,0.0,-0.05305800926062762,0.0,5.0,1.8409569263458252,0.0,1500.0,0.0,16.775437,0.0,0.0,0.0,1602.0,1500.0,1.0113123220429223e-05,0.0,0.008028514559173916,0.0,0.0,1.0,0.39146047830581665,-5.804614610894545e-06,0.0,16.815019,1418.0,0.0,1568.0,5.0,1500.0,,,,,,,,,,,,,,,,
13.000121,-9.616293907165527,0.0,0.0,0.0,0.0,-4.221055823917987e-06,0.013255536556243896,1491.0,0.0,0.0,1020.0,0.0,-0.05305800926062762,0.0,5.0,1.851102590560913,0.0,1500.0,0.0,16.895422,0.0,0.0,0.0,1602.0,1501.0,-6.502564191232578e-06,0.0,0.008028514559173916,0.0,0.0,1.0,0.4799412786960602,-1.1260154617938625e-05,0.0,16.915014,1417.0,0.0,1568.0,5.0,1500.0,,,,,,,,,,,,,,,,
13.100133,-9.61722183227539,0.0,0.0,0.0,0.0,-1.9486804338539532e-05,0.01596563681960106,1490.0,0.0,0.0,1019.0,0.0,-0.05305800926062762,0.0,5.0,1.866929054260254,0.0,1500.0,0.0,16.975472,0.0,0.0,0.0,1603.0,1500.0,1.2431278447565957e-06,0.0,0.008028514559173916,0.0,0.0,1.0,0.2654424011707306,-1.5160488257093441e-05,0.0,17.015026,1417.0,0.0,1569.0,5.0,1500.0,,,,,,,,,,,,,,,,
13.200114,-9.621331214904785,0.0,0.0,0.0,0.0,1.731347292167358e-05,0.007871298119425774,1491.0,0.0,0.0,1019.0,0.0,-0.05305800926062762,0.0,5.0,1.8465113639831543,0.0,1500.0,0.0,17.095471,0.0,0.0,0.0,1602.0,1500.0,-3.921994477923633e-06,0.0,0.008028514559173916,0.0,0.0,1.0,0.36732935905456543,-1.0531136822849821e-05,0.0,17.115007,1418.0,0.0,1568.0,5.0,1500.0,,,,,,,,,,,,,,,,
13.300139999999999,-9.621753692626953,0.0,0.0,0.0,0.0,1.4874625937081976e-07,0.006482576951384544,1491.0,0.0,0.0,1020.0,0.0,-0.05305800926062762,0.0,5.0,1.8635952472686768,0.0,1500.0,0.0,17.175442999999998,0.0,0.0,0.0,1602.0,1500.0,-1.8520139692124526e-07,0.0,0.008028514559173916,0.0,0.0,1.0,0.24667373299598694,-1.4173469619995882e-05,0.0,17.215033,1418.0,0.0,1568.0,5.0,1500.0,,,,,,,,,,,,,,,,
13.400137,-9.620676040649414,0.0,0.0,0.0,0.0,2.135106078595431e-06,0.019244883209466934,1491.0,0.0,0.0,1020.0,0.0,-0.05305800926062762,0.0,5.0,1.8480510711669922,0.0,1500.0,0.0,17.295453,0.0,0.0,0.0,1602.0,1501.0,-1.3476116889915884e-09,0.0,0.008028514559173916,0.0,0.0,1.0,0.5442909598350525,-1.4682277607541665e-05,0.0,17.31503,1417.0,0.0,1568.0,5.0,1500.0,,,,,,,,,,,,,,,,
13.500149,-9.615785598754883,0.0,0.0,0.0,0.0,3.2485922057938034e-06,0.011060350574553013,1490.0,0.0,0.0,1020.0,0.0,-0.05305800926062762,0.0,5.0,1.8579736948013306,0.0,1500.0,0.0,17.375463,0.0,0.0,0.0,1603.0,1500.0,-3.707273660923863e-06,0.0,0.008028514559173916,0.0,0.0,1.0,0.3566044270992279,-1.1894682127921429e-05,0.0,17.415042,1417.0,0.0,1568.0,5.0,1500.0,,,,,,,,,,,,,,,,
13.600114999999999,-9.621426582336426,0.0,0.0,0.0,0.0,-1.3530275336308753e-05,0.022271746769547462,1491.0,0.0,0.0,1019.0,0.0,-0.05305800926062762,0.0,5.0,1.8494130373001099,0.0,1500.0,0.0,17.495473,0.0,0.0,0.0,1602.0,1500.0,7.885232070613938e-06,0.0,0.008028514559173916,0.0,0.0,1.0,0.3324733078479767,-1.1063980859212564e-06,0.0,17.515007999999998,1418.0,0.0,1568.0,5.0,1500.0,,,,,,,,,,,,,,,,
13.700153,-9.62143611907959,0.0,0.0,0.0,0.0,8.069662356050216e-06,0.01894441433250904,1491.0,0.0,0.0,1020.0,0.0,-0.05305800926062762,0.0,5.0,1.8580608367919922,0.0,1500.0,0.0,17.575922,0.0,0.0,0.0,1602.0,1500.0,-1.0395644194911029e-05,0.0,0.008028514559173916,0.0,0.0,1.0,0.44508522748947144,-1.384211461138054e-05,0.0,17.615046,1418.0,0.0,1568.0,5.0,1500.0,,,,,,,,,,,,,,,,
13.80011,-9.620223999023438,0.0,0.0,0.0,0.0,-1.3480116548581214e-05,0.026167601346969604,1491.0,0.0,0.0,1020.0,0.0,-0.05305800926062762,0.0,5.0,1.861814022064209,0.0,1500.0,0.0,17.695525999999997,0.0,0.0,0.0,1602.0,1501.0,6.301088878342173e-06,0.0,0.008028514559173916,0.0,0.0,1.0,0.3941417336463928,-8.216653113725915e-06,0.0,17.715003,1417.0,0.0,1568.0,5.0,1500.0,,,,,,,,,,,,,,,,
13.900136,-9.628236770629883,0.0,0.0,0.0,0.0,-5.7748924839597674e-06,0.022145356982946396,1490.0,0.0,0.0,1020.0,0.0,-0.05305800926062762,0.0,5.0,1.8597567081451416,0.0,1500.0,0.0,17.775461999999997,0.0,0.0,0.0,1603.0,1500.0,1.24939411212099e-05,0.0,0.008028514559173916,0.0,0.0,1.0,0.4772600531578064,-3.444363408069233e-06,0.0,17.815029,1417.0,0.0,1568.0,5.0,1500.0,,,,,,,,,,,,,,,,
14.000129999999999,-9.605114936828613,0.0,0.0,0.0,0.0,6.289683704858219e-06,0.013951664790511131,1491.0,0.0,0.0,1019.0,0.0,-0.05305800926062762,0.0,5.0,1.8485158681869507,0.0,1500.0,0.0,17.895439,0.0,0.0,0.0,1602.0,1500.0,-1.6260912252900023e-06,0.0,0.008028514559173916,0.0,0.0,1.0,0.41827285289764404,4.971347648012632e-06,0.0,17.915022999999998,1418.0,0.0,1568.0,5.0,1500.0,,,,,,,,,,,,,,,,
14.100166999999999,-9.626654624938965,0.0,0.0,0.0,0.0,-5.892042252606749e-06,0.00954054668545723,1491.0,0.0,0.0,1019.0,0.0,-0.05305800926062762,0.0,5.0,1.8719490766525269,0.0,1500.0,0.0,17.975319,0.0,0.0,0.0,1602.0,1500.0,4.208678165481687e-06,0.0,0.008028514559173916,0.0,0.0,1.0,0.39146047830581665,-9.959737275733394e-06,0.0,18.01506,1418.0,0.0,1568.0,5.0,1500.0,,,,,,,,,,,,,,,,
14.200133999999998,-9.616796493530273,0.0,0.0,0.0,0.0,1.613389972422315e-05,0.0039718495681881905,1491.0,0.0,0.0,1020.0,0.0,-0.05305800926062762,0.0,5.0,1.861790418624878,0.0,1500.0,0.0,18.095447,0.0,0.0,0.0,1602.0,1501.0,5.6311922760470865e-06,0.0,0.008028514559173916,0.0,0.0,1.0,0.4209540784358978,4.669405928070888e-06,0.0,18.115026999999998,1417.0,0.0,1568.0,5.0,1500.0,,,,,,,,,,,,,,,,
14.300152,-9.609384536743164,0.0,0.0,0.0,0.0,-4.07398607882516e-06,0.015085019171237946,1490.0,0.0,0.0,1020.0,0.0,-0.05305800926062762,0.0,5.0,1.8505243062973022,0.0,1500.0,0.0,18.175327,0.0,0.0,0.0,1603.0,1500.0,-3.223671548700787e-06,0.0,0.008028514559173916,0.0,0.0,1.0,0.345879465341568,-1.271176657546678e-05,0.0,18.215045,1417.0,0.0,1568.0,5.0,1500.0,,,,,,,,,,,,,,,,
14.400030999999998,-9.634831428527832,0.0,0.0,0.0,0.0,-4.063378779845724e-07,0.007913914509117603,1490.0,0.0,0.0,1019.0,0.0,-0.05305800926062762,0.0,5.0,1.8460558652877808,0.0,1500.0,0.0,18.295479999999998,0.0,0.0,0.0,1603.0,1500.0,4.956995812105821e-06,0.0,0.008028514559173916,0.0,0.0,1.0,0.44240397214889526,-1.4189485017260192e-06,0.0,18.314923999999998,1417.0,0.0,1569.0,5.0,1500.0,,,,,,,,,,,,,,,,
14.500135,-9.611028671264648,0.0,0.0,0.0,0.0,-1.247303256774504e-06,0.0018797246739268303,1491.0,0.0,0.0,1019.0,0.0,-0.05305800926062762,0.0,5.0,1.85560941696167,0.0,1500.0,0.0,18.375847999999998,0.0,0.0,0.0,1602.0,1500.0,-9.503440935825973e-06,0.0,0.008028514559173916,0.0,0.0,1.0,0.46653512120246887,-4.857023647863902e-06,0.0,18.415028,1418.0,0.0,1568.0,5.0,1500.0,,,,,,,,,,,,,,,,
14.600037,-9.633667945861816,0.0,0.0,0.0,0.0,6.92863451020014e-06,0.021101094782352448,1491.0,0.0,0.0,1020.0,0.0,-0.05305800926062762,0.0,5.0,1.864086389541626,0.0,1500.0,0.0,18.495333,0.0,0.0,0.0,1602.0,1500.0,-1.5359434956720448e-05,0.0,0.008028514559173916,0.0,0.0,1.0,0.3834167718887329,-2.184177074980349e-06,0.0,18.51493,1418.0,0.0,1568.0,5.0,1500.0,,,,,,,,,,,,,,,,
14.700167,-9.601644515991211,0.0,0.0,0.0,0.0,-1.7098314753123032e-06,0.02764507569372654,1491.0,0.0,0.0,1020.0,0.0,-0.05305800926062762,0.0,5.0,1.8629461526870728,0.0,1501.0,0.0,18.575968,0.0,0.0,0.0,1602.0,1500.0,9.427006513930262e-06,0.0,0.008028514559173916,0.0,0.0,1.0,0.45581015944480896,-1.0030074173801492e-05,0.0,18.61506,1417.0,0.0,1568.0,5.0,1500.0,,,,,,,,,,,,,,,,
14.800144,-9.643231391906738,0.0,0.0,0.0,0.0,2.4207328078412145e-05,0.008921956643462181,1490.0,0.0,0.0,1019.0,0.0,-0.05305800926062762,0.0,5.0,1.849942922592163,0.0,1500.0,0.0,18.69546,0.0,0.0,0.0,1603.0,1500.0,-5.583580388058938e-06,0.0,0.008028514559173916,0.0,0.0,1.0,0.4102291464805603,7.03329156799938e-06,0.0,18.715037,1417.0,0.0,1569.0,5.0,1500.0,,,,,,,,,,,,,,,,
14.900155000000002,-9.600959777832031,0.0,0.0,0.0,0.0,9.638556659176287e-06,0.016861198469996452,1491.0,0.0,0.0,1019.0,0.0,-0.05305800926062762,0.0,5.0,1.8461601734161377,0.0,1500.0,0.0,18.77546,0.0,0.0,0.0,1602.0,1500.0,-8.171179092566278e-07,0.0,0.008028514559173916,0.0,0.0,1.0,0.41827285289764404,-1.3672289124768945e-05,0.0,18.815048,1418.0,0.0,1568.0,5.0,1500.0,,,,,,,,,,,,,,,,
15.000052,-9.641550064086914,0.0,0.0,0.0,0.0,-8.631768309701966e-06,0.0071035027503967285,1491.0,0.0,0.0,1020.0,0.0,-0.05305800926062762,0.0,5.0,1.853585124015808,0.0,1500.0,0.0,18.895466,0.0,0.0,0.0,1602.0,1500.0,2.634580344020889e-06,0.0,0.008028514559173916,0.0,0.0,1.0,0.3995042145252228,-1.248140269417218e-05,0.0,18.914945,1418.0,0.0,1568.0,5.0,1500.0,,,,,,,,,,,,,,,,
15.100148,-9.609161376953125,0.0,0.0,0.0,0.0,1.9393356382565012e-05,0.0070512015372514725,1491.0,0.0,0.0,1020.0,0.0,-0.05305800926062762,0.0,5.0,1.8513299226760864,0.0,1501.0,0.0,18.975448999999998,0.0,0.0,0.0,1602.0,1500.0,-8.9469702645254e-06,0.0,0.008028514559173916,0.0,0.0,1.0,0.5013911724090576,-1.7181755435111564e-05,0.0,19.015041,1417.0,0.0,1568.0,5.0,1500.0,,,,,,,,,,,,,,,,
15.20017,-9.627558708190918,0.0,0.0,0.0,0.0,-2.8611063003711454e-05,0.011891369707882404,1490.0,0.0,0.0,1019.0,0.0,-0.05305800926062762,0.0,5.0,1.8434749841690063,0.0,1500.0,0.0,19.095451999999998,0.0,0.0,0.0,1603.0,1500.0,-1.0507597048672947e-05,0.0,0.008028514559173916,0.0,0.0,1.0,0.4638538658618927,-4.583866872962405e-06,0.0,19.115063,1417.0,0.0,1569.0,5.0,1500.0,,,,,,,,,,,,,,,,
15.300018000000001,-9.631064414978027,0.0,0.0,0.0,0.0,7.271650702963309e-06,0.0033748243004083633,1491.0,0.0,0.0,1019.0,0.0,-0.05305800926062762,0.0,5.0,1.8453598022460938,0.0,1500.0,0.0,19.175328999999998,0.0,0.0,0.0,1602.0,1500.0,-1.0217948412216045e-05,0.0,0.008028514559173916,0.0,0.0,1.0,0.4906662404537201,-4.38461997035455e-06,0.0,19.214911,1418.0,0.0,1568.0,5.0,1500.0,,,,,,,,,,,,,,,,
15.400179999999999,-9.608490943908691,0.0,0.0,0.0,0.0,3.85648095537166e-07,0.010349176824092865,1491.0,0.0,0.0,1020.0,0.0,-0.05305800926062762,0.0,5.0,1.8557803630828857,0.0,1500.0,0.0,19.295454,0.0,0.0,0.0,1602.0,1500.0,1.1312605818614682e-06,0.0,0.008028514559173916,0.0,0.0,1.0,0.5496534109115601,-5.3997312061930355e-06,0.0,19.315072999999998,1418.0,0.0,1568.0,5.0,1500.0,,,,,,,,,,,,,,,,
15.500157999999999,-9.625484466552734,0.0,0.0,0.0,0.0,3.870810631625273e-06,0.0036392193287611008,1491.0,0.0,0.0,1020.0,0.0,-0.05305800926062762,0.0,5.0,1.8540855646133423,0.0,1501.0,0.0,19.375439999999998,0.0,0.0,0.0,1602.0,1500.0,-1.0774098054271444e-05,0.0,0.008028514559173916,0.0,0.0,1.0,0.5308848023414612,5.815452903622782e-06,0.0,19.415051,1417.0,0.0,1568.0,5.0,1500.0,,,,,,,,,,,,,,,,
15.600103,-9.623298645019531,0.0,0.0,0.0,0.0,1.0776407229822954e-05,0.000221953188884072,1491.0,0.0,0.0,1020.0,0.0,-0.05305800926062762,0.0,5.0,1.8556816577911377,0.0,1500.0,0.0,19.495511,0.0,0.0,0.0,1602.0,1500.0,4.845119913930365e-07,0.0,0.008028514559173916,0.0,0.0,1.0,0.56037837266922,-6.954743026296061e-06,0.0,19.514996,1418.0,0.0,1568.0,5.0,1500.0,,,,,,,,,,,,,,,,
15.700145,-9.632932662963867,0.0,0.0,0.0,0.0,-1.0046133763382781e-05,0.022433411329984665,1491.0,0.0,0.0,1019.0,0.0,-0.05305800926062762,0.0,5.0,1.8393340110778809,0.0,1500.0,0.0,19.575905,0.0,0.0,0.0,1602.0,1500.0,1.7248710858994357e-06,0.0,0.008028514559173916,0.0,0.0,1.0,0.45849138498306274,-7.576666582702179e-06,0.0,19.615038,1418.0,0.0,1568.0,5.0,1500.0,,,,,,,,,,,,,,,,
15.800149999999999,-9.616958618164062,0.0,0.0,0.0,0.0,1.8924139631454728e-05,0.0067121004685759544,1490.0,0.0,0.0,1019.0,0.0,-0.05305800926062762,0.0,5.0,1.8697011470794678,0.0,1500.0,0.0,19.695459,0.0,0.0,0.0,1603.0,1500.0,-5.670255236509519e-06,0.0,0.008028514559173916,0.0,0.0,1.0,0.605959415435791,-8.24639962262868e-06,0.0,19.715042999999998,1417.0,0.0,1569.0,5.0,1500.0,,,,,,,,,,,,,,,,
15.900132,-9.622082710266113,0.0,0.0,0.0,0.0,5.286276829569204e-06,0.018134212121367455,1490.0,0.0,0.0,1020.0,0.0,-0.05305800926062762,0.0,5.0,1.8523660898208618,0.0,1501.0,0.0,19.77544,0.0,0.0,0.0,1603.0,1500.0,-2.712256468432144e-07,0.0,0.008028514559173916,0.0,0.0,1.0,0.5469722151756287,-8.589374162863202e-06,0.0,19.815025,1417.0,0.0,1568.0,5.0,1500.0,,,,,,,,,,,,,,,,
16.00017,-9.625359535217285,0.0,0.0,0.0,0.0,2.0131943084173686e-05,0.0031620501540601254,1491.0,0.0,0.0,1022.0,0.0,-0.05305800926062762,0.0,5.0,1.8567173480987549,0.0,1500.0,0.0,19.895277,0.0,0.0,0.0,1602.0,1500.0,-1.1154620317249492e-05,0.0,0.008028514559173916,0.0,0.0,1.0,0.659584105014801,1.9429844251637566e-07,0.0,19.915063,1418.0,0.0,1568.0,5.0,1500.0,,,,,,,,,,,,,,,,
16.100134999999998,-9.619747161865234,0.0,0.0,0.0,0.0,9.980016977607235e-06,0.010558338835835457,1491.0,0.0,0.0,1020.0,0.0,-0.05305800926062762,0.0,5.0,1.8511252403259277,0.0,1500.0,0.0,19.975497,0.0,0.0,0.0,1602.0,1500.0,-9.199318553622321e-06,0.0,0.008028514559173916,0.0,0.0,1.0,0.6140031218528748,1.1963104025587153e-05,0.0,20.015027999999997,1418.0,0.0,1568.0,5.0,1500.0,,,,,,,,,,,,,,,,
16.200102,-9.630629539489746,0.0,0.0,0.0,0.0,1.481941982800213e-06,0.013478371314704418,1491.0,0.0,0.0,1020.0,0.0,-0.05305800926062762,0.0,5.0,1.8591070175170898,0.0,1500.0,0.0,20.095471,0.0,0.0,0.0,1602.0,1500.0,-2.3236699647842e-07,0.0,0.008028514559173916,0.0,0.0,1.0,0.5255222916603088,-9.771391652604411e-06,0.0,20.114995,1418.0,0.0,1568.0,5.0,1500.0,,,,,,,,,,,,,,,,
16.30011,-9.62360954284668,0.0,0.0,0.0,0.0,1.4953402043819847e-05,0.010102600790560246,1491.0,0.0,0.0,1020.0,0.0,-0.05305800926062762,0.0,5.0,1.8663547039031982,0.0,1501.0,0.0,20.175476,0.0,0.0,0.0,1602.0,1500.0,1.1040817989624166e-06,0.0,0.008028514559173916,0.0,0.0,1.0,0.5416097044944763,-3.375630894290497e-06,0.0,20.215003,1417.0,0.0,1568.0,5.0,1500.0,,,,,,,,,,,,,,,,
16.400128,-9.619911193847656,0.0,0.0,0.0,0.0,8.319046204205956e-06,0.0032983857672661543,1490.0,0.0,0.0,1019.0,0.0,-0.05305800926062762,0.0,5.0,1.8512169122695923,0.0,1500.0,0.0,20.295454,0.0,0.0,0.0,1603.0,1500.0,2.6908778001470202e-06,0.0,0.008028514559173916,0.0,0.0,1.0,0.5845094919204712,-6.189784178562597e-06,0.0,20.315020999999998,1417.0,0.0,1569.0,5.0,1501.0,,,,,,,,,,,,,,,,
16.500119,-9.628089904785156,0.0,0.0,0.0,0.0,2.1120292570357245e-05,0.013246595859527588,1491.0,0.0,0.0,1020.0,0.0,-0.05305800926062762,0.0,5.0,1.8546663522720337,0.0,1500.0,0.0,20.375436999999998,0.0,0.0,0.0,1602.0,1500.0,-4.008537765338613e-06,0.0,0.008028514559173916,0.0,0.0,1.0,0.5764657855033875,-3.3641980371137246e-06,0.0,20.415012,1418.0,0.0,1568.0,5.0,1500.0,,,,,,,,,,,,,,,,
16.600141999999998,-9.611888885498047,0.0,0.0,0.0,0.0,8.148075781014268e-06,0.004833448212593794,1491.0,0.0,0.0,1020.0,0.0,-0.05305800926062762,0.0,5.0,1.8533053398132324,0.0,1500.0,0.0,20.495447,0.0,0.0,0.0,1602.0,1500.0,1.2820231791891112e-05,0.0,0.008028514559173916,0.0,0.0,1.0,0.6005969047546387,-7.039302231066035e-06,0.0,20.515034999999997,1418.0,0.0,1568.0,5.0,1500.0,,,,,,,,,,,,,,,,
16.700154,-9.643128395080566,0.0,0.0,0.0,0.0,-1.5628241074209122e-05,0.000692065164912492,1491.0,0.0,0.0,1019.0,0.0,-0.05305800926062762,0.0,5.0,1.8496484756469727,0.0,1500.0,0.0,20.5759,0.0,0.0,0.0,1603.0,1500.0,6.686918283018894e-06,0.0,0.008028514559173916,0.0,0.0,1.0,0.5147973299026489,-6.132557159906931e-06,0.0,20.615047,1417.0,0.0,1568.0,5.0,1500.0,,,,,,,,,,,,,,,,
16.800112,-9.590316772460938,0.0,0.0,0.0,0.0,1.173440116586172e-05,0.007354639936238527,1490.0,0.0,0.0,1020.0,0.0,-0.05305800926062762,0.0,5.0,1.8493053913116455,0.0,1500.0,0.0,20.695484999999998,0.0,0.0,0.0,1603.0,1501.0,6.453617390497097e-07,0.0,0.008028514559173916,0.0,0.0,1.0,0.6434966921806335,-2.397932518435103e-06,0.0,20.715004999999998,1417.0,0.0,1568.0,5.0,1500.0,,,,,,,,,,,,,,,,
16.900619,-9.626505851745605,0.0,0.0,0.0,0.0,-2.3829649362450674e-05,0.003991025034338236,1491.0,0.0,0.0,1020.0,0.0,-0.05305800926062762,0.0,5.0,1.8589587211608887,0.0,1500.0,0.0,20.775468999999998,0.0,0.0,0.0,1602.0,1500.0,-7.066045694244972e-06,0.0,0.008028514559173916,0.0,0.0,1.0,0.5898720026016235,-1.1827894838026218e-05,0.0,20.815512,1418.0,0.0,1568.0,5.0,1500.0,,,,,,,,,,,,,,,,
17.000047,-9.616829872131348,0.0,0.0,0.0,0.0,1.9458616751714985e-05,0.017946457490324974,1491.0,0.0,0.0,1019.0,0.0,-0.05305800926062762,0.0,5.0,1.8497412204742432,0.0,1500.0,0.0,20.895335,0.0,0.0,0.0,1602.0,1500.0,-3.598920195186142e-06,0.0,0.008028514559173916,0.0,0.0,1.0,0.7212525606155396,-4.693173267282315e-06,0.0,20.914939999999998,1418.0,0.0,1568.0,5.0,1500.0,,,,,,,,,,,,,,,,
17.100167,-9.636770248413086,0.0,0.0,0.0,0.0,1.5955524294170506e-06,0.014035065658390522,1491.0,0.0,0.0,1019.0,0.0,-0.05305800926062762,0.0,5.0,1.8577077388763428,0.0,1500.0,0.0,20.975437,0.0,0.0,0.0,1603.0,1500.0,2.214043715871221e-06,0.0,0.008028514559173916,0.0,0.0,1.0,0.5362472534179688,-8.572429711027024e-06,0.0,21.01506,1417.0,0.0,1568.0,5.0,1500.0,,,,,,,,,,,,,,,,
17.200052,-9.616928100585938,0.0,0.0,0.0,0.0,5.003237738267657e-06,0.008577180095016956,1490.0,0.0,0.0,1020.0,0.0,-0.05305800926062762,0.0,5.0,1.85075843334198,0.0,1500.0,0.0,21.095442,0.0,0.0,0.0,1603.0,1501.0,-1.9634805170034892e-07,0.0,0.008028514559173916,0.0,0.0,1.0,0.46921634674072266,-7.497512555460498e-06,0.0,21.114945,1417.0,0.0,1568.0,5.0,1500.0,,,,,,,,,,,,,,,,
17.300164,-9.618146896362305,0.0,0.0,0.0,0.0,-9.884296419033186e-06,0.001549112144857645,1491.0,0.0,0.0,1020.0,0.0,-0.05305800926062762,0.0,5.0,1.8601655960083008,0.0,1500.0,0.0,21.175459999999998,0.0,0.0,0.0,1602.0,1500.0,9.92161454491149e-07,0.0,0.008028514559173916,0.0,0.0,1.0,0.5416097044944763,-7.4227376312609555e-06,0.0,21.215056999999998,1418.0,0.0,1568.0,5.0,1500.0,,,,,,,,,,,,,,,,
17.400134,-9.62782096862793,0.0,0.0,0.0,0.0,1.3222346319353008e-05,0.010379191488027573,1491.0,0.0,0.0,1019.0,0.0,-0.05305800926062762,0.0,5.0,1.8571484088897705,0.0,1500.0,0.0,21.295386,0.0,0.0,0.0,1603.0,1500.0,-6.281677784077897e-06,0.0,0.008028514559173916,0.0,0.0,1.0,0.6140031218528748,-9.74516986194888e-06,0.0,21.315027,1417.0,0.0,1568.0,5.0,1500.0,,,,,,,,,,,,,,,,
17.50013,-9.618430137634277,0.0,0.0,0.0,0.0,8.168955380892142e-06,0.013673990033566952,1490.0,0.0,0.0,1019.0,0.0,-0.05305800926062762,0.0,5.0,1.8615797758102417,0.0,1500.0,0.0,21.375443999999998,0.0,0.0,0.0,1603.0,1500.0,-7.763392328832973e-06,0.0,0.008028514559173916,0.0,0.0,1.0,0.7346587181091309,-6.333706363975499e-06,0.0,21.415022999999998,1417.0,0.0,1569.0,5.0,1500.0,,,,,,,,,,,,,,,,
17.600153,-9.624177932739258,0.0,0.0,0.0,0.0,2.642049353547814e-06,0.024386290460824966,1491.0,0.0,0.0,1020.0,0.0,-0.05305800926062762,0.0,5.0,1.857909917831421,0.0,1500.0,0.0,21.495444,0.0,0.0,0.0,1602.0,1500.0,6.293447163208667e-06,0.0,0.008028514559173916,0.0,0.0,1.0,0.6998026371002197,-8.03169455231657e-06,0.0,21.515045999999998,1418.0,0.0,1568.0,5.0,1500.0,,,,,,,,,,,,,,,,
17.700148,-9.634876251220703,0.0,0.0,0.0,0.0,1.3571453432494125e-05,0.013376611284911633,1491.0,0.0,0.0,1020.0,0.0,-0.05305800926062762,0.0,5.0,1.8509635925292969,0.0,1500.0,0.0,21.575937,0.0,0.0,0.0,1602.0,1500.0,-1.197553628947259e-06,0.0,0.008028514559173916,0.0,0.0,1.0,0.6408154368400574,9.938838119485363e-07,0.0,21.615040999999998,1418.0,0.0,1568.0,5.0,1500.0,,,,,,,,,,,,,,,,
17.800135,-9.604164123535156,0.0,0.0,0.0,0.0,9.016394870624623e-06,0.017116304486989975,1491.0,0.0,0.0,1019.0,0.0,-0.05305800926062762,0.0,5.0,1.860953450202942,0.0,1500.0,0.0,21.695453,0.0,0.0,0.0,1603.0,1500.0,5.417311621027563e-06,0.0,0.008028514559173916,0.0,0.0,1.0,0.7829209566116333,7.653808081669536e-06,0.0,21.715028,1417.0,0.0,1568.0,5.0,1500.0,,,,,,,,,,,,,,,,
17.900108,-9.612714767456055,0.0,0.0,0.0,0.0,1.5213152292031726e-05,0.01065828837454319,1490.0,0.0,0.0,1019.0,0.0,-0.05305800926062762,0.0,5.0,1.8455448150634766,0.0,1500.0,0.0,21.775472,0.0,0.0,0.0,1603.0,1500.0,-5.982763491827969e-06,0.0,0.008028514559173916,0.0,0.0,1.0,0.6837152242660522,3.188488622873245e-06,0.0,21.815001,1417.0,0.0,1569.0,5.0,1501.0,,,,,,,,,,,,,,,,
18.000111,-9.623612403869629,0.0,0.0,0.0,0.0,7.704319899975233e-06,0.018964000046253204,1491.0,0.0,0.0,1020.0,0.0,-0.05305800926062762,0.0,5.0,1.85323166847229,0.0,1500.0,0.0,21.895449,0.0,0.0,0.0,1602.0,1500.0,7.449318040028974e-06,0.0,0.008028514559173916,0.0,0.0,1.0,0.7561086416244507,-7.5138743798533015e-06,0.0,21.915004,1418.0,0.0,1568.0,5.0,1500.0,,,,,,,,,,,,,,,,
18.10013,-9.626675605773926,0.0,0.0,0.0,0.0,2.7947497458781114e-08,0.015647688880562782,1491.0,0.0,0.0,1020.0,0.0,-0.05305800926062762,0.0,5.0,1.8492339849472046,0.0,1500.0,0.0,21.975452999999998,0.0,0.0,0.0,1602.0,1500.0,-2.621286583933215e-06,0.0,0.008028514559173916,0.0,0.0,1.0,0.7909647226333618,1.7262306345935882e-07,0.0,22.015023,1418.0,0.0,1568.0,5.0,1500.0,,,,,,,,,,,,,,,,
18.200150999999998,-9.622048377990723,0.0,0.0,0.0,0.0,1.2237196966467846e-05,0.008794955909252167,1490.0,0.0,0.0,1019.0,0.0,-0.05305800926062762,0.0,5.0,1.8548059463500977,0.0,1500.0,0.0,22.095454999999998,0.0,0.0,0.0,1603.0,1500.0,-1.617207782243069e-05,0.0,0.008028514559173916,0.0,0.0,1.0,0.691758930683136,-2.972212947456587e-06,0.0,22.115043999999997,1417.0,0.0,1569.0,5.0,1500.0,,,,,,,,,,,,,,,,
18.300049,-9.615327835083008,0.0,0.0,0.0,0.0,1.914090904172314e-06,0.013167425990104675,1490.0,0.0,0.0,1020.0,0.0,-0.05305800926062762,0.0,5.0,1.8618533611297607,0.0,1501.0,0.0,22.17539,0.0,0.0,0.0,1603.0,1500.0,2.8048985495689022e-06,0.0,0.008028514559173916,0.0,0.0,1.0,0.6542216539382935,-8.201075068012385e-06,0.0,22.214942,1417.0,0.0,1568.0,5.0,1500.0,,,,,,,,,,,,,,,,
18.400149,-9.630847930908203,0.0,0.0,0.0,0.0,1.1764594169553261e-05,0.0035300571471452713,1491.0,0.0,0.0,1020.0,0.0,-0.05305800926062762,0.0,5.0,1.8623179197311401,0.0,1500.0,0.0,22.295448,0.0,0.0,0.0,1602.0,1500.0,6.168672949988839e-06,0.0,0.008028514559173916,0.0,0.0,1.0,0.7453836798667908,-9.317758026784323e-06,0.0,22.315042,1418.0,0.0,1568.0,5.0,1500.0,,,,,,,,,,,,,,,,
18.500148,-9.612119674682617,0.0,0.0,0.0,0.0,2.5929771888602632e-05,0.01878083124756813,1491.0,0.0,0.0,1019.0,0.0,-0.05305800926062762,0.0,5.0,1.861345887184143,0.0,1500.0,0.0,22.375448,0.0,0.0,0.0,1602.0,1500.0,-6.691714419305158e-06,0.0,0.008028514559173916,0.0,0.0,1.0,0.659584105014801,-4.7470056048533485e-06,0.0,22.415041,1418.0,0.0,1568.0,5.0,1500.0,,,,,,,,,,,,,,,,
18.600046,-9.630095481872559,0.0,0.0,0.0,0.0,2.3677816752298734e-06,0.017200719565153122,1490.0,0.0,0.0,1019.0,0.0,-0.05305800926062762,0.0,5.0,1.8629029989242554,0.0,1500.0,0.0,22.495487,0.0,0.0,0.0,1603.0,1500.0,-1.067571376569473e-05,0.0,0.008028514559173916,0.0,0.0,1.0,0.7507461309432983,5.489233093036034e-07,0.0,22.514939,1417.0,0.0,1569.0,5.0,1500.0,,,,,,,,,,,,,,,,
18.700165,-9.6287841796875,0.0,0.0,0.0,0.0,5.898843297802342e-06,0.009546471759676933,1490.0,0.0,0.0,1020.0,0.0,-0.05305800926062762,0.0,5.0,1.8660807609558105,0.0,1500.0,0.0,22.575903999999998,0.0,0.0,0.0,1603.0,1501.0,-6.968657510652091e-06,0.0,0.008028514559173916,0.0,0.0,1.0,0.8338644504547119,-1.1415038021835036e-05,0.0,22.615057999999998,1417.0,0.0,1568.0,5.0,1500.0,,,,,,,,,,,,,,,,
18.800109,-9.613086700439453,0.0,0.0,0.0,0.0,-3.281685901739392e-07,0.013633748516440392,1491.0,0.0,0.0,1020.0,0.0,-0.05305800926062762,0.0,5.0,1.8442282676696777,0.0,1500.0,0.0,22.695483,0.0,0.0,0.0,1602.0,1500.0,3.290977463373404e-06,0.0,0.008028514559173916,0.0,0.0,1.0,0.6274092793464661,-9.388433224658252e-06,0.0,22.715002,1418.0,0.0,1568.0,5.0,1500.0,,,,,,,,,,,,,,,,
18.900137,-9.627066612243652,0.0,0.0,0.0,0.0,2.4363727227985132e-06,0.019551515579223633,1491.0,0.0,0.0,1019.0,0.0,-0.05305800926062762,0.0,5.0,1.8483178615570068,0.0,1500.0,0.0,22.775437999999998,0.0,0.0,0.0,1602.0,1500.0,-2.9842490043622244e-06,0.0,0.008028514559173916,0.0,0.0,1.0,0.7936459183692932,-9.801978831445088e-06,0.0,22.81503,1418.0,0.0,1568.0,5.0,1500.0,,,,,,,,,,,,,,,,
19.000156999999998,-9.618793487548828,0.0,0.0,0.0,0.0,-3.00756705501771e-06,0.009832173585891724,1490.0,0.0,0.0,1019.0,0.0,-0.05305800926062762,0.0,5.0,1.8632726669311523,0.0,1500.0,0.0,22.895325,0.0,0.0,0.0,1603.0,1500.0,-2.0819691350697164e-06,0.0,0.008028514559173916,0.0,0.0,1.0,0.8579956293106079,3.914836846446219e-06,0.0,22.915049999999997,1417.0,0.0,1569.0,5.0,1500.0,,,,,,,,,,,,,,,,
19.100154,-9.612184524536133,0.0,0.0,0.0,0.0,-6.709086063538789e-06,0.013065078295767307,1491.0,0.0,0.0,1020.0,0.0,-0.05305800926062762,0.0,5.0,1.8392553329467773,0.0,1500.0,0.0,22.975457,0.0,0.0,0.0,1603.0,1500.0,-3.0022959783133506e-06,0.0,0.008028514559173916,0.0,0.0,1.0,0.7051651477813721,-0.00025568570100241173,0.0,23.015047,1417.0,0.0,1568.0,5.0,1500.0,,,,,,,,,,,,,,,,
19.200052,-9.61780071258545,0.0,0.0,0.0,0.0,1.1077421927023495e-05,0.005183342844247818,1494.0,0.0,0.0,1019.0,0.0,-0.05305800926062762,0.0,5.0,1.8585636615753174,0.0,1500.0,0.0,23.095475999999998,0.0,0.0,0.0,1602.0,1500.0,3.187215934940049e-06,0.0,0.008028514559173916,0.0,0.0,1.0,0.659584105014801,-0.0001001072728538625,0.0,23.114945,1418.0,0.0,1571.0,5.0,1500.0,,,,,,,,,,,,,,,,
19.30008,-9.593866348266602,0.0,0.0,0.0,0.0,-1.182957211424071e-05,-0.001979295164346695,1497.0,0.0,0.0,1020.0,0.0,-0.05305800926062762,0.0,5.0,1.8092411756515503,0.0,1500.0,0.0,23.175449999999998,0.0,0.0,0.0,1602.0,1500.0,1.4451018704838847e-05,0.0,0.008028514559173916,0.0,0.0,1.0,0.737339973449707,-0.0007386832542019075,0.0,23.214973,1418.0,0.0,1575.0,5.0,1500.0,,,,,,,,,,,,,,,,
19.400138,-9.535179138183594,0.0,0.0,0.0,0.0,4.819619677139973e-06,0.022139398381114006,1501.0,0.0,0.0,1020.0,0.0,-0.05305800926062762,0.0,5.0,1.7513840198516846,0.0,1500.0,0.0,23.295455,0.0,0.0,0.0,1602.0,1500.0,-4.238106184927612e-06,0.0,0.008028514559173916,0.0,0.0,1.0,0.7668335437774658,-0.0004886829079855971,0.0,23.315030999999998,1418.0,0.0,1580.0,5.0,1500.0,,,,,,,,,,,,,,,,
19.500125,-9.648153305053711,0.0,0.0,0.0,0.0,1.1348852153816858e-05,0.02110286056995392,1505.0,0.0,0.0,1020.0,0.0,-0.05305800926062762,0.0,5.0,1.722153663635254,0.0,1500.0,0.0,23.375445,0.0,0.0,0.0,1602.0,1500.0,-1.6853923620870458e-06,0.0,0.008028514559173916,0.0,0.0,1.0,0.7346587181091309,-0.0019528784723381542,0.0,23.415018,1418.0,0.0,1583.0,5.0,1500.0,,,,,,,,,,,,,,,,
19.60015,-9.8997220993042,0.0,0.0,0.0,0.0,7.349009099854223e-06,0.029508378356695175,1514.0,0.0,0.0,1019.0,0.0,-0.05305800926062762,0.0,5.0,1.7008018493652344,0.0,1500.0,0.0,23.495449999999998,0.0,0.0,0.0,1602.0,1500.0,2.4062030851596263e-06,0.0,0.008028514559173916,0.0,0.0,1.0,0.769514799118042,-0.0020929205641930784,0.0,23.515043,1418.0,0.0,1595.0,5.0,1500.0,,,,,,,,,,,,,,,,
19.700141,-9.578972816467285,0.0,0.0,0.0,0.0,4.8494007271640545e-06,-0.0038361437618732452,1528.0,0.0,0.0,1019.0,0.0,-0.05305800926062762,0.0,5.0,1.438436508178711,0.0,1501.0,0.0,23.575871,0.0,0.0,0.0,1603.0,1500.0,-1.1067094131750003e-05,0.0,0.008028514559173916,0.0,0.0,1.0,0.8338644504547119,-0.003395761595926134,0.0,23.615033999999998,1417.0,0.0,1611.0,5.0,1500.0,,,,,,,,,,,,,,,,
19.800123,-9.954633712768555,0.0,0.0,0.0,0.0,-3.043655923343298e-05,-0.004607778508216143,1550.0,0.0,0.0,1019.0,0.0,-0.05305800926062762,0.0,5.0,1.3794548511505127,0.0,1500.0,0.0,23.695473999999997,0.0,0.0,0.0,1603.0,1500.0,1.1883367370902095e-06,0.0,0.008028514559173916,0.0,0.0,1.0,0.6998026371002197,-0.003743549108195816,0.0,23.715016,1418.0,0.0,1634.0,5.0,1500.0,,,,,,,,,,,,,,,,
19.900108,-9.58436393737793,0.0,0.0,0.0,0.0,-2.2218879029305582e-05,0.02302825078368187,1566.0,0.0,0.0,1020.0,0.0,-0.05305800926062762,0.0,5.0,1.1221355199813843,0.0,1500.0,0.0,23.775475,0.0,0.0,0.0,1603.0,1500.0,4.2572103457719585e-07,0.0,0.008028514559173916,0.0,0.0,1.0,0.7561086416244507,-0.003853825043345438,0.0,23.815001,1417.0,0.0,1652.0,5.0,1500.0,,,,,,,,,,,,,,,,
20.000105,-9.880845069885254,0.0,0.0,0.0,0.0,1.0376201607271435e-05,0.04265052080154419,1588.0,0.0,0.0,1020.0,0.0,-0.05305800926062762,0.0,5.0,1.093462347984314,0.0,1500.0,0.0,23.895426999999998,0.0,0.0,0.0,1603.0,1500.0,6.282862849313637e-06,0.0,0.008028514559173916,0.0,0.0,1.0,0.9384326934814453,-0.0022860985714674,0.0,23.914998,1418.0,0.0,1676.0,5.0,1500.0,,,,,,,,,,,,,,,,
20.100141,-9.933907508850098,0.0,0.0,0.0,0.0,2.261558787128152e-05,-0.014156455174088478,1596.0,0.0,0.0,1020.0,0.0,-0.05305800926062762,0.0,5.0,0.9238090515136719,0.0,1500.0,0.0,23.975479999999997,0.0,0.0,0.0,1603.0,1500.0,3.3839774006861495e-06,0.0,0.008028514559173916,0.0,0.0,1.0,0.8955329060554504,-0.0022200412533117764,0.0,24.015034,1418.0,0.0,1685.0,5.0,1500.0,,,,,,,,,,,,,,,,
20.200148,-9.369819641113281,0.0,0.0,0.0,0.0,-5.109593711277979e-05,-0.0021736782509833574,1618.0,0.0,0.0,1019.0,0.0,-0.05305800926062762,0.0,5.0,0.5070174336433411,0.0,1500.0,0.0,24.095451,0.0,0.0,0.0,1602.0,1500.0,-1.1273186779828095e-05,0.0,0.008028514559173916,0.0,0.0,1.0,0.7936459183692932,-0.001857250573369781,0.0,24.115040999999998,1418.0,0.0,1710.0,5.0,1500.0,,,,,,,,,,,,,,,,
20.300107,-9.97419548034668,0.0,0.0,0.0,0.0,-5.374698849209176e-05,0.03506889194250107,1636.0,0.0,0.0,1020.0,0.0,-0.05305800926062762,0.0,5.0,0.590640664100647,0.0,1500.0,0.0,24.175386,0.0,0.0,0.0,1603.0,1500.0,-1.0327181660631992e-05,0.0,0.008028514559173916,0.0,0.0,1.0,0.8285019993782043,-0.0019057536547971744,0.0,24.215,1418.0,0.0,1731.0,5.0,1500.0,,,,,,,,,,,,,,,,
20.400123999999998,-9.972478866577148,0.0,0.0,0.0,0.0,5.259168957560383e-05,0.06345908343791962,1654.0,0.0,0.0,1019.0,0.0,-0.05305800926062762,0.0,5.0,0.4811892807483673,0.0,1500.0,0.0,24.295426,0.0,0.0,0.0,1603.0,1500.0,1.0316706557635239e-05,0.0,0.008028514559173916,0.0,0.0,1.0,0.6863964796066284,-0.0031385998430910325,0.0,24.315016999999997,1418.0,0.0,1750.0,5.0,1500.0,,,,,,,,,,,,,,,,
20.500129,-9.688921928405762,0.0,0.0,0.0,0.0,1.0586727709861974e-05,-0.005174626596271992,1678.0,0.0,0.0,1020.0,0.0,-0.05305800926062762,0.0,5.0,0.15287359058856964,0.0,1500.0,0.0,24.375441,0.0,0.0,0.0,1603.0,1500.0,2.98771820283652e-05,0.0,0.008028514559173916,0.0,0.0,1.0,0.9384326934814453,-0.00410573537540604,0.0,24.415022,1418.0,0.0,1776.0,5.0,1500.0,,,,,,,,,,,,,,,,
20.600146,-9.725184440612793,0.0,0.0,0.0,0.0,3.370107515013231e-05,-0.03491240739822388,1705.0,0.0,0.0,1019.0,0.0,-0.05305800926062762,0.0,5.0,-0.14746364951133728,0.0,1500.0,0.0,24.495447,0.0,0.0,0.0,1603.0,1500.0,1.1080229155066924e-06,0.0,0.008028514559173916,0.0,0.0,1.0,0.6998026371002197,-0.003942062280177353,0.0,24.515038999999998,1418.0,0.0,1808.0,5.0,1500.0,,,,,,,,,,,,,,,,
20.700158,-9.605182647705078,0.0,0.0,0.0,0.0,-0.00016585079508148334,0.010498914867639542,1727.0,0.0,0.0,1019.0,0.0,-0.05305800926062762,0.0,5.0,-0.4289913475513458,0.0,1501.0,0.0,24.575848,0.0,0.0,0.0,1603.0,1500.0,4.846250881674632e-06,0.0,0.008028514559173916,0.0,0.0,1.0,0.8526331186294556,-0.0028468039923686406,0.0,24.615050999999998,1417.0,0.0,1832.0,5.0,1500.0,,,,,,,,,,,,,,,,
20.800107,-10.223238945007324,0.0,0.0,0.0,0.0,2.7449245974448127e-05,0.1051967665553093,1750.0,0.0,0.0,1019.0,0.0,-0.05305800926062762,0.0,5.0,-0.25905629992485046,0.0,1500.0,0.0,24.695477,0.0,0.0,0.0,1603.0,1500.0,-3.929527236137692e-06,0.0,0.008028514559173916,0.0,0.0,1.0,0.801689624786377,-0.0032176109432363697,0.0,24.715,1418.0,0.0,1857.0,5.0,1500.0,,,,,,,,,,,,,,,,
20.900166,-9.768138885498047,0.0,0.0,0.0,0.0,6.889286788669918e-05,0.08756039291620255,1768.0,0.0,0.0,1020.0,0.0,-0.05305800926062762,0.0,5.0,-0.5292108058929443,0.0,1500.0,0.0,24.775472999999998,0.0,0.0,0.0,1603.0,1500.0,1.7187852958939177e-05,0.0,0.008028514559173916,0.0,0.0,1.0,0.7721960544586182,-0.0002665111159878901,0.0,24.815058999999998,1417.0,0.0,1876.0,5.0,1500.0,,,,,,,,,,,,,,,,
20.999995,-9.731269836425781,0.0,0.0,0.0,0.0,-1.6597894670522715e-05,-0.02605980820953846,1767.0,0.0,0.0,1020.0,0.0,-0.05305800926062762,0.0,5.0,-0.6460930705070496,0.0,1500.0,0.0,24.89526,0.0,0.0,0.0,1604.0,1500.0,2.8329122116884692e-05,0.0,0.008028514559173916,0.0,0.0,1.0,0.7748772501945496,-2.3728360571937414e-05,0.0,24.914887999999998,1417.0,0.0,1876.0,5.0,1500.0,,,,,,,,,,,,,,,,
21.10013,-9.684375762939453,0.0,0.0,0.0,0.0,2.830673540661057e-05,0.013923745602369308,1767.0,0.0,0.0,1020.0,0.0,-0.05305800926062762,0.0,5.0,-0.6080386638641357,0.0,1500.0,0.0,24.975433,0.0,0.0,0.0,1603.0,1500.0,-2.3124803240875764e-05,0.0,0.008028514559173916,0.0,0.0,1.0,0.7721960544586182,-3.592847967650317e-05,0.0,25.015023,1418.0,0.0,1876.0,5.0,1500.0,,,,,,,,,,,,,,,,
21.200145,-9.79308032989502,0.0,0.0,0.0,0.0,-9.552481200772074e-05,0.026742585003376007,1767.0,0.0,0.0,1020.0,0.0,-0.05305800926062762,0.0,5.0,-0.5827701091766357,0.0,1500.0,0.0,25.095467,0.0,0.0,0.0,1603.0,1500.0,1.361272194514412e-05,0.0,0.008028514559173916,0.0,0.0,1.0,0.8177770376205444,-3.7768440508733455e-05,0.0,25.115038,1417.0,0.0,1877.0,5.0,1500.0,,,,,,,,,,,,,,,,
21.300076999999998,-9.854330062866211,0.0,0.0,0.0,0.0,7.947803108694861e-05,0.034828025847673416,1767.0,0.0,0.0,1019.0,0.0,-0.05305800926062762,0.0,5.0,-0.5705606937408447,0.0,1500.0,0.0,25.175473,0.0,0.0,0.0,1603.0,1500.0,-2.713475516035767e-05,0.0,0.008028514559173916,0.0,0.0,1.0,0.8445894122123718,-1.6266807863555237e-05,0.0,25.214969999999997,1418.0,0.0,1877.0,5.0,1500.0,,,,,,,,,,,,,,,,
21.400159,-9.732865333557129,0.0,0.0,0.0,0.0,-1.6613283755984338e-05,0.04049980640411377,1768.0,0.0,0.0,1020.0,0.0,-0.05305800926062762,0.0,5.0,-0.5573574304580688,0.0,1500.0,0.0,25.295457,0.0,0.0,0.0,1603.0,1500.0,6.60768095071992e-06,0.0,0.008028514559173916,0.0,0.0,1.0,0.7856022119522095,1.3607552205994208e-06,0.0,25.315051999999998,1418.0,0.0,1876.0,5.0,1500.0,,,,,,,,,,,,,,,,
21.500146,-9.788973808288574,0.0,0.0,0.0,0.0,3.7946132227767105e-05,0.00010296230902895331,1767.0,0.0,0.0,1019.0,0.0,-0.05305800926062762,0.0,5.0,-0.6273664236068726,0.0,1500.0,0.0,25.375498,0.0,0.0,0.0,1603.0,1500.0,-9.297714017267697e-06,0.0,0.008028514559173916,0.0,0.0,1.0,0.801689624786377,3.1062976437335017e-07,0.0,25.415039,1418.0,0.0,1877.0,5.0,1500.0,,,,,,,,,,,,,,,,
21.600051999999998,-9.70804214477539,0.0,0.0,0.0,0.0,5.954159379716965e-06,0.04317997395992279,1767.0,0.0,0.0,1020.0,0.0,-0.05305800926062762,0.0,5.0,-0.5927063226699829,0.0,1500.0,0.0,25.495469,0.0,0.0,0.0,1604.0,1500.0,-3.2790658560960378e-06,0.0,0.008028514559173916,0.0,0.0,1.0,0.801689624786377,-6.023816630427404e-06,0.0,25.514944999999997,1418.0,0.0,1876.0,5.0,1500.0,,,,,,,,,,,,,,,,
21.700122,-9.817819595336914,0.0,0.0,0.0,0.0,-3.708556254031553e-05,0.020289182662963867,1767.0,0.0,0.0,1019.0,0.0,-0.05305800926062762,0.0,5.0,-0.5835846066474915,0.0,1500.0,0.0,25.575867,0.0,0.0,0.0,1604.0,1500.0,2.4716771013040944e-05,0.0,0.008028514559173916,0.0,0.0,1.0,0.7668335437774658,-1.3466138569516882e-05,0.0,25.615015,1417.0,0.0,1877.0,5.0,1500.0,,,,,,,,,,,,,,,,
21.800131999999998,-9.77796459197998,0.0,0.0,0.0,0.0,7.096514010991709e-05,0.04518650472164154,1767.0,0.0,0.0,1020.0,0.0,-0.05305800926062762,0.0,5.0,-0.5862607359886169,0.0,1500.0,0.0,25.695467999999998,0.0,0.0,0.0,1603.0,1500.0,-3.161031123602633e-05,0.0,0.008028514559173916,0.0,0.0,1.0,0.7668335437774658,-2.167229016644739e-05,0.0,25.715024999999997,1418.0,0.0,1877.0,5.0,1500.0,,,,,,,,,,,,,,,,
21.900138,-9.766317367553711,0.0,0.0,0.0,0.0,-2.7295143809442655e-05,0.03155025094747543,1767.0,0.0,0.0,1019.0,0.0,-0.05305800926062762,0.0,5.0,-0.5848342180252075,0.0,1500.0,0.0,25.775458,0.0,0.0,0.0,1604.0,1500.0,1.37146334917564e-05,0.0,0.008028514559173916,0.0,0.0,1.0,0.7802397608757019,-3.365767626302938e-06,0.0,25.815030999999998,1417.0,0.0,1877.0,5.0,1500.0,,,,,,,,,,,,,,,,
22.00011,-9.783699035644531,0.0,0.0,0.0,0.0,4.294919014902085e-05,0.013136321678757668,1767.0,0.0,0.0,1019.0,0.0,-0.05305800926062762,0.0,5.0,-0.6206210851669312,0.0,1500.0,0.0,25.895274999999998,0.0,0.0,0.0,1603.0,1500.0,-2.0342969017107975e-05,0.0,0.008028514559173916,0.0,0.0,1.0,0.847270667552948,-9.070544491253038e-09,0.0,25.915003,1418.0,0.0,1877.0,5.0,1500.0,,,,,,,,,,,,,,,,
22.100131,-9.716904640197754,0.0,0.0,0.0,0.0,2.4364512022579737e-06,0.03155386447906494,1767.0,0.0,0.0,1019.0,0.0,-0.05305800926062762,0.0,5.0,-0.580858588218689,0.0,1500.0,0.0,25.975327,0.0,0.0,0.0,1604.0,1500.0,2.6831098575334116e-06,0.0,0.008028514559173916,0.0,0.0,1.0,0.7829209566116333,-1.1777976822232557e-05,0.0,26.015024,1417.0,0.0,1877.0,5.0,1500.0,,,,,,,,,,,,,,,,
22.200125,-9.822375297546387,0.0,0.0,0.0,0.0,-6.1875156396244e-06,0.01817583665251732,1767.0,0.0,0.0,1020.0,0.0,-0.05305800926062762,0.0,5.0,-0.602745771408081,0.0,1500.0,0.0,26.095463,0.0,0.0,0.0,1604.0,1500.0,-2.247820868856967e-06,0.0,0.008028514559173916,0.0,0.0,1.0,0.8740830421447754,-6.777120389505041e-06,0.0,26.115018,1417.0,0.0,1876.0,5.0,1500.0,,,,,,,,,,,,,,,,
22.30015,-9.734918594360352,0.0,0.0,0.0,0.0,4.3645014942440283e-05,0.034552399069070816,1768.0,0.0,0.0,1020.0,0.0,-0.05305800926062762,0.0,5.0,-0.5755772590637207,0.0,1500.0,0.0,26.175463999999998,0.0,0.0,0.0,1603.0,1500.0,-2.0151840801882386e-05,0.0,0.008028514559173916,0.0,0.0,1.0,0.8043708801269531,-1.229244091839384e-06,0.0,26.215042999999998,1417.0,0.0,1876.0,5.0,1500.0,,,,,,,,,,,,,,,,
22.400154,-9.771722793579102,0.0,0.0,0.0,0.0,-2.785071539567368e-05,0.025395546108484268,1767.0,0.0,0.0,1019.0,0.0,-0.05305800926062762,0.0,5.0,-0.5919330716133118,0.0,1500.0,0.0,26.295444,0.0,0.0,0.0,1603.0,1500.0,1.8827166449275307e-05,0.0,0.008028514559173916,0.0,0.0,1.0,0.8928516507148743,-1.2818527085962633e-05,0.0,26.315047,1418.0,0.0,1877.0,5.0,1500.0,,,,,,,,,,,,,,,,
22.500139,-9.769712448120117,0.0,0.0,0.0,0.0,3.90913776461214e-05,0.011897198855876923,1767.0,0.0,0.0,1020.0,0.0,-0.05305800926062762,0.0,5.0,-0.5853720903396606,0.0,1500.0,0.0,26.375452,0.0,0.0,0.0,1603.0,1500.0,-9.450263863644612e-06,0.0,0.008028514559173916,0.0,0.0,1.0,0.7856022119522095,-5.2500000169070425e-06,0.0,26.415032,1418.0,0.0,1876.0,5.0,1500.0,,,,,,,,,,,,,,,,
22.600138,-9.7715482711792,0.0,0.0,0.0,0.0,-1.7232628411318083e-05,0.03137386962771416,1768.0,0.0,0.0,1020.0,0.0,-0.05305800926062762,0.0,5.0,-0.5823613405227661,0.0,1500.0,0.0,26.495378,0.0,0.0,0.0,1600.0,1500.0,3.0391297665567323e-06,0.0,0.008028514559173916,0.0,0.0,1.0,0.7641523480415344,-2.047288426986956e-05,0.0,26.515031,1418.0,0.0,1876.0,5.0,1500.0,,,,,,,,,,,,,,,,
22.700162,-9.812630653381348,0.0,0.0,0.0,0.0,3.894446816167233e-05,0.008802864700555801,1767.0,0.0,0.0,1019.0,0.0,-0.05305800926062762,0.0,5.0,-0.6042933464050293,0.0,1500.0,0.0,26.575855999999998,0.0,0.0,0.0,1600.0,1500.0,1.1282958869414534e-06,0.0,0.008028514559173916,0.0,0.0,1.0,0.8204582929611206,-3.189639400966502e-06,0.0,26.615054999999998,1418.0,0.0,1877.0,5.0,1500.0,,,,,,,,,,,,,,,,
22.800112,-9.764537811279297,0.0,0.0,0.0,0.0,3.0220062596431436e-06,0.045007508248090744,1767.0,0.0,0.0,1019.0,0.0,-0.05305800926062762,0.0,5.0,-0.5856162309646606,0.0,1500.0,0.0,26.695446,0.0,0.0,0.0,1601.0,1500.0,-2.0262231939798917e-06,0.0,0.008028514559173916,0.0,0.0,1.0,0.7802397608757019,0.00020140080972355743,0.0,26.715004999999998,1417.0,0.0,1877.0,5.0,1500.0,,,,,,,,,,,,,,,,
22.900137,-9.333642959594727,0.0,0.0,0.0,0.0,2.8013800284051983e-05,-0.015787292271852493,1746.0,0.0,0.0,1020.0,0.0,-0.05305800926062762,0.0,5.0,-0.6075133681297302,0.0,1500.0,0.0,26.775434999999998,0.0,0.0,0.0,1602.0,1500.0,-2.5640351833095615e-05,0.0,0.008028514559173916,0.0,0.0,1.0,0.8526331186294556,0.004175310718958685,0.0,26.81503,1417.0,0.0,1853.0,5.0,1500.0,,,,,,,,,,,,,,,,
23.000117,-9.70184326171875,0.0,0.0,0.0,0.0,3.975914692170955e-06,-0.005976100917905569,1717.0,0.0,0.0,1020.0,0.0,-0.05305800926062762,0.0,5.0,-0.2727413475513458,0.0,1500.0,0.0,26.895677,0.0,0.0,0.0,1602.0,1500.0,1.7097335982194564e-07,0.0,0.008028514559173916,0.0,0.0,1.0,0.659584105014801,0.004382297112455338,0.0,26.91501,1418.0,0.0,1821.0,5.0,1500.0,,,,,,,,,,,,,,,,
23.100113999999998,-10.192811965942383,0.0,0.0,0.0,0.0,9.126718399375756e-05,0.02385275438427925,1699.0,0.0,0.0,1020.0,0.0,-0.05305800926062762,0.0,5.0,0.29991984367370605,0.0,1501.0,0.0,26.975441,0.0,0.0,0.0,1602.0,1500.0,1.5178674157466332e-05,0.0,0.008028514559173916,0.0,0.0,1.0,0.7427024245262146,0.0066761984338274795,0.0,27.015006999999997,1417.0,0.0,1800.0,5.0,1500.0,,,,,,,,,,,,,,,,
23.20015,-9.639884948730469,0.0,0.0,0.0,0.0,-1.8277911824583786e-05,-0.009975891560316086,1671.0,0.0,0.0,1019.0,0.0,-0.05305800926062762,0.0,5.0,0.19809570908546448,0.0,1500.0,0.0,27.095456,0.0,0.0,0.0,1603.0,1500.0,4.548188434431278e-06,0.0,0.008028514559173916,0.0,0.0,1.0,0.8177770376205444,0.005541834330183936,0.0,27.115043,1417.0,0.0,1770.0,5.0,1500.0,,,,,,,,,,,,,,,,
23.300149,-9.875167846679688,0.0,0.0,0.0,0.0,3.649742070851416e-05,-0.028505193069577217,1638.0,0.0,0.0,1020.0,0.0,-0.05305800926062762,0.0,5.0,0.5152108669281006,0.0,1500.0,0.0,27.175475,0.0,0.0,0.0,1603.0,1500.0,-1.393457712948222e-05,0.0,0.008028514559173916,0.0,0.0,1.0,0.7427024245262146,0.004301597869865108,0.0,27.215042,1418.0,0.0,1733.0,5.0,1500.0,,,,,,,,,,,,,,,,
23.40005,-9.503266334533691,0.0,0.0,0.0,0.0,-4.858281859003605e-05,0.01602277159690857,1610.0,0.0,0.0,1020.0,0.0,-0.05305800926062762,0.0,5.0,0.6337080001831055,0.0,1500.0,0.0,27.295462999999998,0.0,0.0,0.0,1602.0,1500.0,-2.4395174887112712e-05,0.0,0.008028514559173916,0.0,0.0,1.0,0.8821267485618591,0.0038826740479429114,0.0,27.314943,1418.0,0.0,1701.0,5.0,1500.0,,,,,,,,,,,,,,,,
23.500155,-9.700010299682617,0.0,0.0,0.0,0.0,-2.6493105067976433e-05,0.013019971549510956,1587.0,0.0,0.0,1020.0,0.0,-0.05305800926062762,0.0,5.0,0.9388033747673035,0.0,1500.0,0.0,27.375384,0.0,0.0,0.0,1603.0,1500.0,-6.632732914869704e-06,0.0,0.008028514559173916,0.0,0.0,1.0,0.8740830421447754,0.0025704968680837163,0.0,27.415048,1417.0,0.0,1675.0,5.0,1500.0,,,,,,,,,,,,,,,,
23.600148,-10.116774559020996,0.0,0.0,0.0,0.0,8.042327122189909e-05,0.09155061841011047,1556.0,0.0,0.0,1020.0,0.0,-0.05305800926062762,0.0,5.0,1.4924242496490479,0.0,1500.0,0.0,27.495448,0.0,0.0,0.0,1602.0,1500.0,-4.900799058587056e-07,0.0,0.008028514559173916,0.0,0.0,1.0,0.8124145865440369,0.004837287781722367,0.0,27.515041,1418.0,0.0,1640.0,5.0,1500.0,,,,,,,,,,,,,,,,
23.70012,-9.59610366821289,0.0,0.0,0.0,0.0,-3.5163215038254525e-05,0.001100530382245779,1544.0,0.0,0.0,1019.0,0.0,-0.05305800926062762,0.0,5.0,1.3615798950195312,0.0,1500.0,0.0,27.575841,0.0,0.0,0.0,1603.0,1500.0,2.109108703636921e-05,0.0,0.008028514559173916,0.0,0.0,1.0,0.8365457057952881,0.0035190456685994373,0.0,27.615012999999998,1418.0,0.0,1629.0,5.0,1500.0,,,,,,,,,,,,,,,,
23.80015,-9.755204200744629,0.0,0.0,0.0,0.0,0.00011528792499848185,-0.01785089075565338,1524.0,0.0,0.0,1019.0,0.0,-0.05305800926062762,0.0,5.0,1.613234281539917,0.0,1500.0,0.0,27.695463,0.0,0.0,0.0,1603.0,1500.0,-1.542096082110696e-05,0.0,0.008028514559173916,0.0,0.0,1.0,0.7721960544586182,0.004110831011659743,0.0,27.715042999999998,1418.0,0.0,1606.0,5.0,1500.0,,,,,,,,,,,,,,,,
23.900147,-9.697986602783203,0.0,0.0,0.0,0.0,-7.305767374853285e-05,0.0406714528799057,1501.0,0.0,0.0,1020.0,0.0,-0.05305800926062762,0.0,5.0,1.813448429107666,0.0,1500.0,0.0,27.77545,0.0,0.0,0.0,1602.0,1500.0,-2.4229251531294495e-05,0.0,0.008028514559173916,0.0,0.0,1.0,0.7587898373603821,0.00202847102551586,0.0,27.81504,1418.0,0.0,1579.0,5.0,1500.0,,,,,,,,,,,,,,,,
24.000015,-9.787725448608398,0.0,0.0,0.0,0.0,3.5403966653827255e-05,0.026178207248449326,1492.0,0.0,0.0,1019.0,0.0,-0.05305800926062762,0.0,5.0,1.8887097835540771,0.0,1500.0,0.0,27.895481999999998,0.0,0.0,0.0,1603.0,1500.0,-2.334725060193933e-06,0.0,0.008028514559173916,0.0,0.0,1.0,0.8660393357276917,0.00019876762219945784,0.0,27.914908,1417.0,0.0,1571.0,5.0,1500.0,,,,,,,,,,,,,,,,
24.100169,-9.509262084960938,0.0,0.0,0.0,0.0,3.526637920847218e-05,0.04495646804571152,1491.0,0.0,0.0,1020.0,0.0,-0.05305800926062762,0.0,5.0,1.8268816471099854,0.0,1501.0,0.0,27.975444999999997,0.0,0.0,0.0,1603.0,1500.0,6.836625598294566e-06,0.0,0.008028514559173916,0.0,0.0,1.0,0.7185713052749634,0.00012285914373521176,0.0,28.015062,1417.0,0.0,1568.0,5.0,1500.0,,,,,,,,,,,,,,,,
24.200611,-9.631143569946289,0.0,0.0,0.0,0.0,-4.452945051289056e-05,-0.007808045018464327,1490.0,0.0,0.0,1020.0,0.0,-0.05305800926062762,0.0,5.0,1.8230262994766235,0.0,1500.0,0.0,28.095395999999997,0.0,0.0,0.0,1603.0,1500.0,7.377149446615793e-06,0.0,0.008028514559173916,0.0,0.0,1.0,0.7882834672927856,1.777599885440188e-05,0.0,28.115503999999998,1417.0,0.0,1568.0,5.0,1500.0,,,,,,,,,,,,,,,,
24.300136,-9.475582122802734,0.0,0.0,0.0,0.0,7.44200568464637e-05,0.0072184535674750805,1489.0,0.0,0.0,1020.0,0.0,-0.05305800926062762,0.0,5.0,1.8089463710784912,0.0,1500.0,0.0,28.175466999999998,0.0,0.0,0.0,1602.0,1500.0,-1.9885770544385005e-05,0.0,0.008028514559173916,0.0,0.0,1.0,0.8070521354675293,0.001317050062453362,0.0,28.215028999999998,1418.0,0.0,1567.0,5.0,1500.0,,,,,,,,,,,,,,,,
24.400158,-9.689475059509277,0.0,0.0,0.0,0.0,-5.663762521617438e-05,0.02304648607969284,1474.0,0.0,0.0,1020.0,0.0,-0.05305800926062762,0.0,5.0,2.0405430793762207,0.0,1500.0,0.0,28.295430999999997,0.0,0.0,0.0,1601.0,1500.0,-6.749307675438306e-06,0.0,0.008028514559173916,0.0,0.0,1.0,0.9223452806472778,0.0012027182682021985,0.0,28.315051,1418.0,0.0,1549.0,5.0,1500.0,,,,,,,,,,,,,,,,
24.500125999999998,-9.563878059387207,0.0,0.0,0.0,0.0,4.876632540843479e-05,0.032070592045784,1464.0,0.0,0.0,1020.0,0.0,-0.05305800926062762,0.0,5.0,2.0905492305755615,0.0,1500.0,0.0,28.375434,0.0,0.0,0.0,1601.0,1500.0,-6.82589600850694e-06,0.0,0.008028514559173916,0.0,0.0,1.0,0.7078463435173035,0.001282356537582763,0.0,28.415018999999997,1418.0,0.0,1540.0,5.0,1500.0,,,,,,,,,,,,,,,,
24.600123,-9.515050888061523,0.0,0.0,0.0,0.0,4.3625570322970026e-05,-0.004684054292738438,1447.0,0.0,0.0,1020.0,0.0,-0.05305800926062762,0.0,5.0,2.2258338928222656,0.0,1500.0,0.0,28.495451,0.0,0.0,0.0,1601.0,1500.0,-9.877020433419497e-06,0.0,0.008028514559173916,0.0,0.0,1.0,0.7990084290504456,0.003969184651329804,0.0,28.515016,1418.0,0.0,1521.0,5.0,1500.0,,,,,,,,,,,,,,,,
24.700128,-9.591753005981445,0.0,0.0,0.0,0.0,8.724919618399302e-06,-0.0026126201264560223,1422.0,0.0,0.0,1019.0,0.0,-0.05305800926062762,0.0,5.0,2.548168659210205,0.0,1500.0,0.0,28.575889999999998,0.0,0.0,0.0,1600.0,1501.0,-2.343741664343116e-05,0.0,0.008028514559173916,0.0,0.0,1.0,0.8258207440376282,0.005214184893063376,0.0,28.615021,1417.0,0.0,1493.0,5.0,1500.0,,,,,,,,,,,,,,,,
24.800143,-9.496297836303711,0.0,0.0,0.0,0.0,4.2014653698017e-05,0.019110674038529396,1392.0,0.0,0.0,1019.0,0.0,-0.05305800926062762,0.0,5.0,2.7743942737579346,0.0,1500.0,0.0,28.695448,0.0,0.0,0.0,1600.0,1500.0,-3.927211965094186e-06,0.0,0.008028514559173916,0.0,0.0,1.0,0.8231395483016968,0.004230202006036041,0.0,28.715035999999998,1418.0,0.0,1461.0,5.0,1500.0,,,,,,,,,,,,,,,,
24.900106,-9.108352661132812,0.0,0.0,0.0,0.0,5.357875291297603e-05,-0.002797475317493081,1373.0,0.0,0.0,1019.0,0.0,-0.05305800926062762,0.0,5.0,2.935751438140869,0.0,1500.0,0.0,28.775464,0.0,0.0,0.0,1600.0,1501.0,5.133467416824752e-06,0.0,0.008028514559173916,0.0,0.0,1.0,0.8285019993782043,0.009347774488772987,0.0,28.814999,1417.0,0.0,1441.0,5.0,1500.0,,,,,,,,,,,,,,,,
25.000128,-9.105417251586914,0.0,0.0,0.0,0.0,5.947572286290465e-05,-0.0888075977563858,1308.0,0.0,0.0,1019.0,0.0,-0.05305800926062762,0.0,5.0,3.3859927654266357,0.0,1500.0,0.0,28.895445,0.0,0.0,0.0,1600.0,1500.0,-1.9397235147305735e-05,0.0,0.008028514559173916,0.0,0.0,1.0,0.7748772501945496,0.006316101083597287,0.0,28.915021,1418.0,0.0,1370.0,5.0,1500.0,,,,,,,,,,,,,,,,
25.100044,-8.506535530090332,0.0,0.0,0.0,0.0,-2.0979600487745056e-05,-0.03783130645751953,1261.0,0.0,0.0,1020.0,0.0,-0.05305800926062762,0.0,5.0,3.6579747200012207,0.0,1500.0,0.0,28.975448,0.0,0.0,0.0,1600.0,1500.0,-8.563437234866995e-05,0.0,0.008028514559173916,0.0,0.0,1.0,0.6863964796066284,0.01041452030816104,0.0,29.014937,1417.0,0.0,1318.0,5.0,1501.0,,,,,,,,,,,,,,,,
25.200112999999998,-9.262490272521973,0.0,0.0,0.0,0.0,-5.33438042057844e-05,0.03321134299039841,1215.0,0.0,0.0,1020.0,0.0,-0.05305800926062762,0.0,5.0,4.405754089355469,0.0,1500.0,0.0,29.095440999999997,0.0,0.0,0.0,1600.0,1500.0,-4.483128708559536e-05,0.0,0.008028514559173916,0.0,0.0,1.0,0.8204582929611206,0.0009562670912833528,0.0,29.115005999999997,1418.0,0.0,1268.0,5.0,1500.0,,,,,,,,,,,,,,,,
25.300141,-8.89923095703125,0.0,0.0,0.0,0.0,0.0001699780770945838,0.08198677003383636,1199.0,0.0,0.0,1020.0,0.0,-0.05305800926062762,0.0,5.0,4.475292682647705,0.0,1500.0,0.0,29.175459,0.0,0.0,0.0,1601.0,1500.0,5.45844562648749e-05,0.0,0.008028514559173916,0.0,0.0,1.0,0.7856022119522095,0.0020652793447618477,0.0,29.215034,1417.0,0.0,1251.0,5.0,1500.0,,,,,,,,,,,,,,,,
25.400102999999998,-8.800496101379395,0.0,0.0,0.0,0.0,-7.201710824607278e-05,-0.04278940334916115,1193.0,0.0,0.0,1019.0,0.0,-0.05305800926062762,0.0,5.0,4.292962074279785,0.0,1500.0,0.0,29.295385999999997,0.0,0.0,0.0,1599.0,1500.0,1.4650981319798676e-05,0.0,0.008028514559173916,0.0,0.0,1.0,0.9277077317237854,7.844607241918823e-05,0.0,29.314995999999997,1418.0,0.0,1245.0,5.0,1500.0,,,,,,,,,,,,,,,,
25.500163,-8.82839584350586,0.0,0.0,0.0,0.0,0.00012910666542988476,-0.06528449803590775,1193.0,0.0,0.0,1020.0,0.0,-0.05305800926062762,0.0,5.0,4.261458873748779,0.0,1500.0,0.0,29.375377999999998,0.0,0.0,0.0,1599.0,1500.0,7.724454833914146e-06,0.0,0.008028514559173916,0.0,0.0,1.0,0.9518388509750366,-0.00017591207919022452,0.0,29.415056,1418.0,0.0,1244.0,5.0,1500.0,,,,,,,,,,,,,,,,
25.600132,-8.77348804473877,0.0,0.0,0.0,0.0,-0.0001231910067014935,0.021038997918367386,1193.0,0.0,0.0,1020.0,0.0,-0.05305800926062762,0.0,5.0,4.32713508605957,0.0,1501.0,0.0,29.495438999999998,0.0,0.0,0.0,1601.0,1500.0,-4.5457005593727245e-05,0.0,0.008028514559173916,0.0,0.0,1.0,0.6461779475212097,-3.2720706694803417e-05,0.0,29.515024999999998,1417.0,0.0,1244.0,5.0,1500.0,,,,,,,,,,,,,,,,
25.70016,-8.957521438598633,0.0,0.0,0.0,0.0,4.054070277823537e-05,-2.0113831851631403e-05,1194.0,0.0,0.0,1020.0,0.0,-0.05305800926062762,0.0,5.0,4.428171157836914,0.0,1500.0,0.0,29.575871,0.0,0.0,0.0,1601.0,1500.0,-1.0480034249778088e-05,0.0,0.008028514559173916,0.0,0.0,1.0,0.7400212287902832,-3.233382175409589e-06,0.0,29.615053,1417.0,0.0,1244.0,5.0,1500.0,,,,,,,,,,,,,,,,
25.800113,-8.728425025939941,0.0,0.0,0.0,0.0,3.0066505977959692e-05,0.06425581127405167,1193.0,0.0,0.0,1019.0,0.0,-0.05305800926062762,0.0,5.0,4.346155643463135,0.0,1500.0,0.0,29.695463999999998,0.0,0.0,0.0,1601.0,1500.0,1.6821080094075578e-05,0.0,0.008028514559173916,0.0,0.0,1.0,0.8097333312034607,7.79376311770776e-06,0.0,29.715006,1418.0,0.0,1245.0,5.0,1500.0,,,,,,,,,,,,,,,,
25.90013,-8.857978820800781,0.0,0.0,0.0,0.0,-4.6606440646914106e-05,-0.03347626328468323,1193.0,0.0,0.0,1019.0,0.0,-0.05305800926062762,0.0,5.0,4.316987037658691,0.0,1500.0,0.0,29.775446,0.0,0.0,0.0,1601.0,1500.0,-7.117228524627999e-06,0.0,0.008028514559173916,0.0,0.0,1.0,0.7721960544586182,-8.989645565932522e-07,0.0,29.815023,1418.0,0.0,1245.0,5.0,1500.0,,,,,,,,,,,,,,,,
26.000148,-8.747479438781738,0.0,0.0,0.0,0.0,0.00010328233336184531,-0.008644266054034233,1193.0,0.0,0.0,1019.0,0.0,-0.05305800926062762,0.0,5.0,4.293774604797363,0.0,1500.0,0.0,29.895435,0.0,0.0,0.0,1601.0,1500.0,1.3185970454945897e-05,0.0,0.008028514559173916,0.0,0.0,1.0,0.7078463435173035,-5.104518909415921e-06,0.0,29.915041,1418.0,0.0,1245.0,5.0,1500.0,,,,,,,,,,,,,,,,
26.100035,-8.793365478515625,0.0,0.0,0.0,0.0,-0.00011171285392369143,-0.0025092260912060738,1193.0,0.0,0.0,1020.0,0.0,-0.05305800926062762,0.0,5.0,4.326508045196533,0.0,1500.0,0.0,29.975448999999998,0.0,0.0,0.0,1601.0,1500.0,-3.167640871941055e-05,0.0,0.008028514559173916,0.0,0.0,1.0,0.801689624786377,-2.9841791601830927e-05,0.0,30.014927999999998,1417.0,0.0,1244.0,5.0,1500.0,,,,,,,,,,,,,,,,
26.200028,-8.860816955566406,0.0,0.0,0.0,0.0,9.019288197492507e-05,-0.02137055993080139,1193.0,0.0,0.0,1019.0,0.0,-0.05305800926062762,0.0,5.0,4.363155364990234,0.0,1500.0,0.0,30.095276,0.0,0.0,0.0,1601.0,1500.0,1.1745618902966767e-05,0.0,0.008028514559173916,0.0,0.0,1.0,0.8445894122123718,-1.0438128758214413e-05,0.0,30.114921,1418.0,0.0,1245.0,5.0,1500.0,,,,,,,,,,,,,,,,
26.300038999999998,-8.737715721130371,0.0,0.0,0.0,0.0,-6.185143985279922e-06,0.025035034865140915,1193.0,0.0,0.0,1019.0,0.0,-0.05305800926062762,0.0,5.0,4.329039573669434,0.0,1500.0,0.0,30.175282,0.0,0.0,0.0,1601.0,1500.0,-1.0817295790138471e-05,0.0,0.008028514559173916,0.0,0.0,1.0,0.7614710927009583,-2.8069011726687323e-06,0.0,30.214931999999997,1418.0,0.0,1245.0,5.0,1500.0,,,,,,,,,,,,,,,,
26.399971999999998,-8.87924575805664,0.0,0.0,0.0,0.0,-7.3592556219010904e-06,-0.026241619139909744,1193.0,0.0,0.0,1020.0,0.0,-0.05305800926062762,0.0,5.0,4.332675933837891,0.0,1500.0,0.0,30.295237,0.0,0.0,0.0,1601.0,1500.0,-1.470461250613381e-06,0.0,0.008028514559173916,0.0,0.0,1.0,0.7882834672927856,1.4623627545483545e-06,0.0,30.314864999999998,1418.0,0.0,1244.0,5.0,1500.0,,,,,,,,,,,,,,,,
26.500042,-8.732270240783691,0.0,0.0,0.0,0.0,4.325241649390095e-05,0.026240374892950058,1193.0,0.0,0.0,1019.0,0.0,-0.05305800926062762,0.0,5.0,4.312289714813232,0.0,1500.0,0.0,30.37528,0.0,0.0,0.0,1601.0,1500.0,-6.556201473059709e-06,0.0,0.008028514559173916,0.0,0.0,1.0,0.7105275988578796,-7.3494632140079954e-06,0.0,30.414935,1418.0,0.0,1245.0,5.0,1500.0,,,,,,,,,,,,,,,,
26.600006,-8.839756965637207,0.0,0.0,0.0,0.0,-6.390999823493932e-05,-0.017997780814766884,1193.0,0.0,0.0,1019.0,0.0,-0.05305800926062762,0.0,5.0,4.33484411239624,0.0,1500.0,0.0,30.495388,0.0,0.0,0.0,1602.0,1500.0,-1.9727362930199026e-05,0.0,0.008028514559173916,0.0,0.0,1.0,0.7534273862838745,-8.477458897968599e-06,0.0,30.514899,1417.0,0.0,1245.0,5.0,1500.0,,,,,,,,,,,,,,,,
26.700008,-8.805227279663086,0.0,0.0,0.0,0.0,8.714478650157732e-05,0.006734282709658146,1193.0,0.0,0.0,1020.0,0.0,-0.05305800926062762,0.0,5.0,4.339679718017578,0.0,1500.0,0.0,30.575867,0.0,0.0,0.0,1602.0,1500.0,-8.26162032012389e-07,0.0,0.008028514559173916,0.0,0.0,1.0,0.7668335437774658,-4.191735237518508e-06,0.0,30.614901,1418.0,0.0,1244.0,5.0,1500.0,,,,,,,,,,,,,,,,
26.800109,-8.771391868591309,0.0,0.0,0.0,0.0,-3.859130754635324e-05,0.004879622720181942,1193.0,0.0,0.0,1020.0,0.0,-0.05305800926062762,0.0,5.0,4.325213432312012,0.0,1500.0,0.0,30.695258,0.0,0.0,0.0,1602.0,1500.0,-1.3519086044833026e-05,0.0,0.008028514559173916,0.0,0.0,1.0,0.8821267485618591,-5.818001835192839e-06,0.0,30.715002,1417.0,0.0,1245.0,5.0,1500.0,,,,,,,,,,,,,,,,
26.900043,-8.85295295715332,0.0,0.0,0.0,0.0,7.004436321618102e-05,-0.02794301137328148,1193.0,0.0,0.0,1019.0,0.0,-0.05305800926062762,0.0,5.0,4.33920431137085,0.0,1500.0,0.0,30.775330999999998,0.0,0.0,0.0,1603.0,1500.0,5.419094552436669e-06,0.0,0.008028514559173916,0.0,0.0,1.0,0.7748772501945496,5.468717444826144e-06,0.0,30.814936,1417.0,0.0,1245.0,5.0,1500.0,,,,,,,,,,,,,,,,
27.000004999999998,-8.385899543762207,0.0,0.0,0.0,0.0,-6.445132262454281e-05,0.022219035774469376,1223.0,0.0,0.0,1019.0,0.0,-0.05305800926062762,0.0,5.0,3.9022672176361084,0.0,1500.0,0.0,30.895270999999997,0.0,0.0,0.0,1602.0,1500.0,-8.406791827417334e-06,0.0,0.008028514559173916,0.0,0.0,1.0,0.7266150116920471,-0.008848633602059489,0.0,30.914897999999997,1418.0,0.0,1277.0,5.0,1500.0,,,,,,,,,,,,,,,,
27.100036,-8.912896156311035,0.0,0.0,0.0,0.0,-2.835334763391122e-05,0.016550052911043167,1266.0,0.0,0.0,1020.0,0.0,-0.05305800926062762,0.0,5.0,3.769937753677368,0.0,1500.0,0.0,30.975246,0.0,0.0,0.0,1602.0,1500.0,-7.5758208331876034e-06,0.0,0.008028514559173916,0.0,0.0,1.0,0.6783527731895447,-0.0035330826601536213,0.0,31.014929,1418.0,0.0,1324.0,5.0,1500.0,,,,,,,,,,,,,,,,
27.200043,-9.106878280639648,0.0,0.0,0.0,0.0,-1.8494145339514132e-05,0.008126188069581985,1296.0,0.0,0.0,1020.0,0.0,-0.05305800926062762,0.0,5.0,3.5466365814208984,0.0,1500.0,0.0,31.095316999999998,0.0,0.0,0.0,1602.0,1500.0,6.6501269092406575e-06,0.0,0.008028514559173916,0.0,0.0,1.0,0.8848079442977905,-0.0055016606491698206,0.0,31.114936,1417.0,0.0,1356.0,5.0,1500.0,,,,,,,,,,,,,,,,
27.300017999999998,-9.318695068359375,0.0,0.0,0.0,0.0,5.819912771933882e-06,0.007452433928847313,1317.0,0.0,0.0,1020.0,0.0,-0.05305800926062762,0.0,5.0,3.3434183597564697,0.0,1500.0,0.0,31.175255,0.0,0.0,0.0,1603.0,1500.0,2.8769777424327945e-05,0.0,0.008028514559173916,0.0,0.0,1.0,0.8419081568717957,-0.006197444773466647,0.0,31.214910999999997,1417.0,0.0,1380.0,5.0,1500.0,,,,,,,,,,,,,,,,
27.400014,-9.161800384521484,0.0,0.0,0.0,0.0,-5.4970504091348176e-05,-0.030550220981240273,1364.0,0.0,0.0,1019.0,0.0,-0.05305800926062762,0.0,5.0,2.8604137897491455,0.0,1500.0,0.0,31.295257999999997,0.0,0.0,0.0,1602.0,1500.0,-1.3349115282328838e-05,0.0,0.008028514559173916,0.0,0.0,1.0,0.6998026371002197,-0.0068645707877207,0.0,31.314906999999998,1418.0,0.0,1431.0,5.0,1500.0,,,,,,,,,,,,,,,,
27.499986,-9.45052433013916,0.0,0.0,0.0,0.0,-1.3806323914205135e-05,0.05681491643190384,1398.0,0.0,0.0,1020.0,0.0,-0.05305800926062762,0.0,5.0,2.629681348800659,0.0,1500.0,0.0,31.375275,0.0,0.0,0.0,1602.0,1500.0,-6.213633806915982e-06,0.0,0.008028514559173916,0.0,0.0,1.0,0.8392269611358643,-0.005983080071363984,0.0,31.414879,1418.0,0.0,1468.0,5.0,1500.0,,,,,,,,,,,,,,,,
27.600001,-9.653688430786133,0.0,0.0,0.0,0.0,2.8521258120120442e-05,0.09071728587150574,1429.0,0.0,0.0,1019.0,0.0,-0.05305800926062762,0.0,5.0,2.559424877166748,0.0,1500.0,0.0,31.495278,0.0,0.0,0.0,1603.0,1500.0,3.430388070384767e-05,0.0,0.008028514559173916,0.0,0.0,1.0,0.7507461309432983,-0.003372665175327827,0.0,31.514893999999998,1417.0,0.0,1502.0,5.0,1500.0,,,,,,,,,,,,,,,,
27.699984,-9.403740882873535,0.0,0.0,0.0,0.0,3.244541802157599e-05,-0.02309335395693779,1441.0,0.0,0.0,1020.0,0.0,-0.05305800926062762,0.0,5.0,2.2482247352600098,0.0,1500.0,0.0,31.575674,0.0,0.0,0.0,1603.0,1500.0,2.7750367342758615e-05,0.0,0.008028514559173916,0.0,0.0,1.0,0.9116203188896179,-0.0014818046767634053,0.0,31.614877,1417.0,0.0,1514.0,5.0,1500.0,,,,,,,,,,,,,,,,
27.800024999999998,-9.341525077819824,0.0,0.0,0.0,0.0,-2.645885449844559e-05,-0.04668714851140976,1460.0,0.0,0.0,1020.0,0.0,-0.05305800926062762,0.0,5.0,1.9565303325653076,0.0,1500.0,0.0,31.695304,0.0,0.0,0.0,1602.0,1500.0,-2.556337999198884e-05,0.0,0.008028514559173916,0.0,0.0,1.0,0.8553143739700317,-0.0028378446919397208,0.0,31.714917999999997,1418.0,0.0,1534.0,5.0,1500.0,,,,,,,,,,,,,,,,
27.900104,-9.503052711486816,0.0,0.0,0.0,0.0,-6.314321378735277e-05,-0.010386248119175434,1475.0,0.0,0.0,1019.0,0.0,-0.05305800926062762,0.0,5.0,1.936668872833252,0.0,1500.0,0.0,31.775658999999997,0.0,0.0,0.0,1602.0,1500.0,-2.8019141966871975e-05,0.0,0.008028514559173916,0.0,0.0,1.0,0.7882834672927856,-0.0012445430310698653,0.0,31.814996999999998,1418.0,0.0,1551.0,5.0,1500.0,,,,,,,,,,,,,,,,
28.000045,-9.644876480102539,0.0,0.0,0.0,0.0,-1.4489120609396425e-05,0.039877407252788544,1484.0,0.0,0.0,1019.0,0.0,-0.05305800926062762,0.0,5.0,1.9219787120819092,0.0,1500.0,0.0,31.895262,0.0,0.0,0.0,1603.0,1500.0,-2.887406113324237e-06,0.0,0.008028514559173916,0.0,0.0,1.0,0.7668335437774658,-0.0010321138020953633,0.0,31.914938,1417.0,0.0,1562.0,5.0,1500.0,,,,,,,,,,,,,,,,
28.100029999999997,-9.56151008605957,0.0,0.0,0.0,0.0,7.148799515876983e-05,0.01886180229485035,1490.0,0.0,0.0,1020.0,0.0,-0.05305800926062762,0.0,5.0,1.857975959777832,0.0,1500.0,0.0,31.975223,0.0,0.0,0.0,1602.0,1500.0,2.257401458403168e-05,0.0,0.008028514559173916,0.0,0.0,1.0,0.9062578678131104,-0.0001905908691604286,0.0,32.014922999999996,1418.0,0.0,1568.0,5.0,1500.0,,,,,,,,,,,,,,,,
28.20001,-9.609484672546387,0.0,0.0,0.0,0.0,-2.163052995077631e-05,-0.02265220135450363,1492.0,0.0,0.0,1019.0,0.0,-0.05305800926062762,0.0,5.0,1.8271596431732178,0.0,1500.0,0.0,32.09542,0.0,0.0,0.0,1602.0,1500.0,1.8674870581731597e-05,0.0,0.008028514559173916,0.0,0.0,1.0,0.7775585055351257,-0.0003477757764157571,0.0,32.114903,1418.0,0.0,1569.0,5.0,1500.0,,,,,,,,,,,,,,,,
28.300075,-9.49061393737793,0.0,0.0,0.0,0.0,-2.54839440482423e-06,-0.012157878838479519,1498.0,0.0,0.0,1019.0,0.0,-0.05305800926062762,0.0,5.0,1.7095990180969238,0.0,1500.0,0.0,32.175270999999995,0.0,0.0,0.0,1603.0,1500.0,-2.2182320300138563e-05,0.0,0.008028514559173916,0.0,0.0,1.0,0.769514799118042,-0.0039419028546160036,0.0,32.214968,1417.0,0.0,1576.0,5.0,1501.0,,,,,,,,,,,,,,,,
28.399960999999998,-10.065576553344727,0.0,0.0,0.0,0.0,-5.080455227701909e-05,0.08864226937294006,1528.0,0.0,0.0,1020.0,0.0,-0.05305800926062762,0.0,5.0,1.7553162574768066,0.0,1500.0,0.0,32.295209,0.0,0.0,0.0,1603.0,1500.0,4.878714964092703e-06,0.0,0.008028514559173916,0.0,0.0,1.0,0.7721960544586182,-0.003644965854632998,0.0,32.314854,1418.0,0.0,1610.0,5.0,1500.0,,,,,,,,,,,,,,,,
28.500053,-9.902450561523438,0.0,0.0,0.0,0.0,5.7530472565580444e-05,0.05162163823843002,1541.0,0.0,0.0,1020.0,0.0,-0.05305800926062762,0.0,5.0,1.4737153053283691,0.0,1500.0,0.0,32.375273,0.0,0.0,0.0,1603.0,1500.0,2.838221994767009e-05,0.0,0.008028514559173916,0.0,0.0,1.0,0.9223452806472778,-0.004974498834510293,0.0,32.414946,1417.0,0.0,1624.0,5.0,1500.0,,,,,,,,,,,,,,,,
28.600026999999997,-9.820867538452148,0.0,0.0,0.0,0.0,4.128699824538952e-05,-0.022263532504439354,1582.0,0.0,0.0,1019.0,0.0,-0.05305800926062762,0.0,5.0,1.0684919357299805,0.0,1500.0,0.0,32.495264,0.0,0.0,0.0,1603.0,1500.0,2.1501780968816807e-05,0.0,0.008028514559173916,0.0,0.0,1.0,0.9223452806472778,-0.006523040143566753,0.0,32.51492,1418.0,0.0,1671.0,5.0,1500.0,,,,,,,,,,,,,,,,
28.700049999999997,-9.034385681152344,0.0,0.0,0.0,0.0,-0.00020639825166485134,-0.08369951695203781,1641.0,0.0,0.0,1019.0,0.0,-0.05305800926062762,0.0,5.0,-0.12857690453529358,0.0,1500.0,0.0,32.575748,0.0,0.0,0.0,1604.0,1500.0,4.161150344487329e-06,0.0,0.008028514559173916,0.0,0.0,1.0,0.8606768250465393,-0.008272764547627284,0.0,32.614943,1417.0,0.0,1737.0,5.0,1500.0,,,,,,,,,,,,,,,,
28.800019,-8.994446754455566,0.0,0.0,0.0,0.0,-3.4965627633342835e-05,0.024807725101709366,1718.0,0.0,0.0,1020.0,0.0,-0.05305800926062762,0.0,5.0,-0.5033231973648071,0.0,1500.0,0.0,32.695231,0.0,0.0,0.0,1603.0,1500.0,-4.0600479236418755e-05,0.0,0.008028514559173916,0.0,0.0,1.0,0.801689624786377,-0.009834460936201163,0.0,32.714912,1418.0,0.0,1822.0,5.0,1500.0,,,,,,,,,,,,,,,,
28.900025,-9.449174880981445,0.0,0.0,0.0,0.0,-4.837548652525191e-05,0.09868843853473663,1759.0,0.0,0.0,1019.0,0.0,-0.05305800926062762,0.0,5.0,-0.6228421926498413,0.0,1500.0,0.0,32.775279,0.0,0.0,0.0,1603.0,1500.0,2.1670274590427067e-05,0.0,0.008028514559173916,0.0,0.0,1.0,0.8258207440376282,-0.0029546708590439067,0.0,32.814918,1418.0,0.0,1868.0,5.0,1500.0,,,,,,,,,,,,,,,,
29.000121,-9.857348442077637,0.0,0.0,0.0,0.0,9.297394613487057e-05,-0.004180897958576679,1768.0,0.0,0.0,1020.0,0.0,-0.05305800926062762,0.0,5.0,-0.6127170324325562,0.0,1500.0,0.0,32.895275,0.0,0.0,0.0,1603.0,1501.0,-1.567545980296347e-05,0.0,0.008028514559173916,0.0,0.0,1.0,0.7480649352073669,-0.00010232825882716058,0.0,32.915014,1417.0,0.0,1876.0,5.0,1500.0,,,,,,,,,,,,,,,,
29.100042000000002,-9.600353240966797,0.0,0.0,0.0,0.0,2.646091883840189e-05,0.010830177925527096,1767.0,0.0,0.0,1019.0,0.0,-0.05305800926062762,0.0,5.0,-0.609901487827301,0.0,1500.0,0.0,32.975235,0.0,0.0,0.0,1604.0,1500.0,-1.0853563967520304e-05,0.0,0.008028514559173916,0.0,0.0,1.0,0.8982141613960266,-2.1894925979805197e-05,0.0,33.014935,1417.0,0.0,1877.0,5.0,1500.0,,,,,,,,,,,,,,,,
29.200041999999996,-9.813493728637695,0.0,0.0,0.0,0.0,-7.029961803904515e-05,-0.021339477971196175,1767.0,0.0,0.0,1019.0,0.0,-0.05305800926062762,0.0,5.0,-0.6366311311721802,0.0,1500.0,0.0,33.095276999999996,0.0,0.0,0.0,1603.0,1500.0,4.713606372371413e-06,0.0,0.008028514559173916,0.0,0.0,1.0,0.801689624786377,-4.604058393385357e-05,0.0,33.114934999999996,1418.0,0.0,1877.0,5.0,1500.0,,,,,,,,,,,,,,,,
29.300002,-9.78634262084961,0.0,0.0,0.0,0.0,6.407709192522095e-05,0.056696221232414246,1767.0,0.0,0.0,1019.0,0.0,-0.05305800926062762,0.0,5.0,-0.5622775554656982,0.0,1500.0,0.0,33.17532,0.0,0.0,0.0,1602.0,1500.0,-3.2653768033523614e-05,0.0,0.008028514559173916,0.0,0.0,1.0,0.7105275988578796,-3.985701207755119e-05,0.0,33.214895,1418.0,0.0,1877.0,5.0,1500.0,,,,,,,,,,,,,,,,
29.399972999999996,-9.819145202636719,0.0,0.0,0.0,0.0,-6.778900679534282e-05,0.0379863940179348,1768.0,0.0,0.0,1020.0,0.0,-0.05305800926062762,0.0,5.0,-0.582825779914856,0.0,1500.0,0.0,33.295248,0.0,0.0,0.0,1602.0,1500.0,2.550257542748863e-05,0.0,0.008028514559173916,0.0,0.0,1.0,0.8124145865440369,-1.3217119434965628e-05,0.0,33.314865999999995,1418.0,0.0,1876.0,5.0,1500.0,,,,,,,,,,,,,,,,
29.500026999999996,-9.785280227661133,0.0,0.0,0.0,0.0,9.768178718772821e-05,0.0002890648029278964,1767.0,0.0,0.0,1019.0,0.0,-0.05305800926062762,0.0,5.0,-0.6170685887336731,0.0,1500.0,0.0,33.37523,0.0,0.0,0.0,1603.0,1500.0,-2.7274120457545187e-05,0.0,0.008028514559173916,0.0,0.0,1.0,0.8258207440376282,5.674368677692124e-06,0.0,33.414919999999995,1418.0,0.0,1877.0,5.0,1500.0,,,,,,,,,,,,,,,,
29.600049999999996,-9.6886625289917,0.0,0.0,0.0,0.0,-2.8514831439724993e-05,0.019351445138454437,1767.0,0.0,0.0,1019.0,0.0,-0.05305800926062762,0.0,5.0,-0.5843256711959839,0.0,1500.0,0.0,33.495279,0.0,0.0,0.0,1603.0,1500.0,1.0888812165907978e-05,0.0,0.008028514559173916,0.0,0.0,1.0,0.7721960544586182,-2.100687375077006e-05,0.0,33.514942999999995,1418.0,0.0,1877.0,5.0,1500.0,,,,,,,,,,,,,,,,
29.700041999999996,-9.750456809997559,0.0,0.0,0.0,0.0,2.5708710744010702e-05,-0.005564222112298012,1756.0,0.0,0.0,1020.0,0.0,-0.05305800926062762,0.0,5.0,-0.32750725746154785,0.0,1500.0,0.0,33.575685,0.0,0.0,0.0,1603.0,1500.0,-3.2669449702601094e-05,0.0,0.008028514559173916,0.0,0.0,1.0,0.8848079442977905,0.010451284414771743,0.0,33.614934999999996,1418.0,0.0,1864.0,5.0,1500.0,,,,,,,,,,,,,,,,
29.800109,-10.161054611206055,0.0,0.0,0.0,0.0,-1.0613691118710467e-05,0.07928922027349472,1691.0,0.0,0.0,1020.0,0.0,-0.05305800926062762,0.0,5.0,0.36173757910728455,0.0,1500.0,0.0,33.695326,0.0,0.0,0.0,1602.0,1500.0,-1.5716487035721916e-06,0.0,0.008028514559173916,0.0,0.0,1.0,0.7292962670326233,0.01001350442404935,0.0,33.715002,1418.0,0.0,1792.0,5.0,1500.0,,,,,,,,,,,,,,,,
29.900041,-9.62369155883789,0.0,0.0,0.0,0.0,9.994508400280775e-05,0.016157222911715508,1638.0,0.0,0.0,1020.0,0.0,-0.05305800926062762,0.0,5.0,0.6138560771942139,0.0,1500.0,0.0,33.77543,0.0,0.0,0.0,1602.0,1500.0,1.558485437809019e-05,0.0,0.008028514559173916,0.0,0.0,1.0,0.7346587181091309,0.014001489328199432,0.0,33.814934,1417.0,0.0,1733.0,5.0,1501.0,,,,,,,,,,,,,,,,
30.000009999999996,-9.523372650146484,0.0,0.0,0.0,0.0,0.00011441111692035041,-0.05318838357925415,1561.0,0.0,0.0,1020.0,0.0,-0.05305800926062762,0.0,5.0,1.1078046560287476,0.0,1500.0,0.0,33.895284,0.0,0.0,0.0,1601.0,1500.0,1.9865594465875113e-05,0.0,0.008028514559173916,0.0,0.0,1.0,0.8204582929611206,0.013268045401315903,0.0,33.914902999999995,1418.0,0.0,1646.0,5.0,1500.0,,,,,,,,,,,,,,,,
30.100020999999998,-9.404623985290527,0.0,0.0,0.0,0.0,-6.955048207262043e-05,-0.09028740227222443,1519.0,0.0,0.0,1019.0,0.0,-0.05305800926062762,0.0,5.0,1.3974298238754272,0.0,1500.0,0.0,33.975223,0.0,0.0,0.0,1600.0,1500.0,-4.454879354082754e-05,0.0,0.008028514559173916,0.0,0.0,1.0,0.8177770376205444,0.0029820793119540805,0.0,34.014914,1418.0,0.0,1600.0,5.0,1500.0,,,,,,,,,,,,,,,,
30.200041999999996,-9.600576400756836,0.0,0.0,0.0,0.0,1.7929849072404813e-05,0.03385935351252556,1498.0,0.0,0.0,1020.0,0.0,-0.05305800926062762,0.0,5.0,1.79415762424469,0.0,1500.0,0.0,34.095275,0.0,0.0,0.0,1600.0,1500.0,-4.0213699950905846e-05,0.0,0.008028514559173916,0.0,0.0,1.0,0.8740830421447754,0.0022711172500384036,0.0,34.114934999999996,1417.0,0.0,1575.0,5.0,1500.0,,,,,,,,,,,,,,,,
30.300522,-9.761392593383789,0.0,0.0,0.0,0.0,-5.1477689649225885e-05,0.04721135273575783,1492.0,0.0,0.0,1019.0,0.0,-0.05305800926062762,0.0,5.0,1.9467943906784058,0.0,1500.0,0.0,34.175247999999996,0.0,0.0,0.0,1600.0,1500.0,1.8879000481386673e-05,0.0,0.008028514559173916,0.0,0.0,1.0,0.6756715178489685,4.4386125177735695e-05,0.0,34.215415,1418.0,0.0,1571.0,5.0,1500.0,,,,,,,,,,,,,,,,
30.39998,-9.622536659240723,0.0,0.0,0.0,0.0,0.00011357237722157058,0.017498154193162918,1491.0,0.0,0.0,1020.0,0.0,-0.05305800926062762,0.0,5.0,1.8542171716690063,0.0,1500.0,0.0,34.295256,0.0,0.0,0.0,1600.0,1500.0,2.0928764084490524e-05,0.0,0.008028514559173916,0.0,0.0,1.0,0.8097333312034607,7.948045302910206e-05,0.0,34.314873,1418.0,0.0,1568.0,5.0,1500.0,,,,,,,,,,,,,,,,
30.500023999999996,-9.530150413513184,0.0,0.0,0.0,0.0,-3.049838580875801e-05,-0.006818616297096014,1491.0,0.0,0.0,1020.0,0.0,-0.05305800926062762,0.0,5.0,1.797265887260437,0.0,1500.0,0.0,34.375253,0.0,0.0,0.0,1600.0,1500.0,1.2937605569868981e-05,0.0,0.008028514559173916,0.0,0.0,1.0,0.8097333312034607,2.4198572920073865e-05,0.0,34.414916999999996,1418.0,0.0,1568.0,5.0,1500.0,,,,,,,,,,,,,,,,
30.600018,-9.632547378540039,0.0,0.0,0.0,0.0,1.2059302318346462e-06,-0.03160032257437706,1490.0,0.0,0.0,1019.0,0.0,-0.05305800926062762,0.0,5.0,1.8049312829971313,0.0,1500.0,0.0,34.495252,0.0,0.0,0.0,1602.0,1500.0,-1.6630895664194184e-05,0.0,0.008028514559173916,0.0,0.0,1.0,0.8821267485618591,-9.547705382792465e-06,0.0,34.514911,1418.0,0.0,1569.0,5.0,1500.0,,,,,,,,,,,,,,,,
30.700106999999996,-9.589672088623047,0.0,0.0,0.0,0.0,-1.29572625156438e-05,0.03807048872113228,1490.0,0.0,0.0,1019.0,0.0,-0.05305800926062762,0.0,5.0,1.865155577659607,0.0,1501.0,0.0,34.575694,0.0,0.0,0.0,1602.0,1500.0,-9.006339340660326e-06,0.0,0.008028514559173916,0.0,0.0,1.0,0.8043708801269531,0.0005427009955160838,0.0,34.614999999999995,1417.0,0.0,1568.0,5.0,1500.0,,,,,,,,,,,,,,,,
30.800024,-9.56606674194336,0.0,0.0,0.0,0.0,-2.6586703379420212e-05,0.006522098556160927,1481.0,0.0,0.0,1019.0,0.0,-0.05305800926062762,0.0,5.0,1.8806369304656982,0.0,1500.0,0.0,34.695409999999995,0.0,0.0,0.0,1601.0,1500.0,-1.9691671030789737e-07,0.0,0.008028514559173916,0.0,0.0,1.0,0.7132088541984558,0.0031306202426451524,0.0,34.714917,1418.0,0.0,1559.0,5.0,1500.0,,,,,,,,,,,,,,,,
30.900033,-9.419960021972656,0.0,0.0,0.0,0.0,0.0001245889956000092,0.007836852222681046,1467.0,0.0,0.0,1019.0,0.0,-0.05305800926062762,0.0,5.0,2.0944530963897705,0.0,1500.0,0.0,34.775416,0.0,0.0,0.0,1601.0,1500.0,1.205171317683143e-05,0.0,0.008028514559173916,0.0,0.0,1.0,0.8392269611358643,0.006250528023835192,0.0,34.814926,1418.0,0.0,1543.0,5.0,1500.0,,,,,,,,,,,,,,,,
31.000045999999998,-9.065735816955566,0.0,0.0,0.0,0.0,-1.4447772855350471e-05,-0.07189273089170456,1419.0,0.0,0.0,1020.0,0.0,-0.05305800926062762,0.0,5.0,2.3922815322875977,0.0,1501.0,0.0,34.89525,0.0,0.0,0.0,1602.0,1500.0,-3.513560652316969e-05,0.0,0.008028514559173916,0.0,0.0,1.0,0.8285019993782043,0.011317552460725674,0.0,34.914939,1417.0,0.0,1490.0,5.0,1500.0,,,,,,,,,,,,,,,,
31.099995,-8.974832534790039,0.0,0.0,0.0,0.0,5.005261238427577e-05,-0.01967238076031208,1351.0,0.0,0.0,1020.0,0.0,-0.05305800926062762,0.0,5.0,2.984651803970337,0.0,1500.0,0.0,34.975341,0.0,0.0,0.0,1602.0,1500.0,-3.502153548593883e-05,0.0,0.008028514559173916,0.0,0.0,1.0,0.8124145865440369,0.005593321764493034,0.0,35.014888,1418.0,0.0,1417.0,5.0,1500.0,,,,,,,,,,,,,,,,
31.200024,-10.001800537109375,0.0,0.0,0.0,0.0,8.374813454119886e-05,0.12764258682727814,1294.0,0.0,0.0,1020.0,0.0,-0.05305800926062762,0.0,5.0,4.055266857147217,0.0,1500.0,0.0,35.095261,0.0,0.0,0.0,1602.0,1500.0,3.45613420948147e-05,0.0,0.008028514559173916,0.0,0.0,1.0,0.7721960544586182,0.007760315137544493,0.0,35.114917,1418.0,0.0,1355.0,5.0,1500.0,,,,,,,,,,,,,,,,
31.29999,-9.80655288696289,0.0,0.0,0.0,0.0,0.00013894849557209056,-0.007751149591058493,1244.0,0.0,0.0,1020.0,0.0,-0.05305800926062762,0.0,5.0,4.4266133308410645,0.0,1500.0,0.0,35.175283,0.0,0.0,0.0,1602.0,1500.0,4.3095278773881e-05,0.0,0.008028514559173916,0.0,0.0,1.0,0.7427024245262146,0.007491927796610653,0.0,35.214883,1418.0,0.0,1300.0,5.0,1500.0,,,,,,,,,,,,,,,,
