time_index,acceleration_z,servos_1,servos_6,position_y,airspeed_0,axis_rate_roll,acceleration_y,tx_controls_2,position_z,velocity_y,tx_controls_0,servos_2,attitude_pitch,wind_x,mode_0,acceleration_x,wind_y,tx_controls_6,servos_3,time_actual,servos_0,velocity_z,servos_5,tx_controls_3,tx_controls_5,axis_rate_yaw,servos_7,attitude_roll,velocity_x,servos_4,mode_2,altitude_baro,axis_rate_pitch,position_x,time_flight,tx_controls_4,attitude_yaw,tx_controls_1,mode_1,tx_controls_7,current_0,current_1,magnetometer_0,rpm_1,global_position_latitude,airspeed_1,magnetometer_2,battery_1,rpm_0,current_2,magnetometer_1,current_3,battery_0,altitude_gps,gps_sat_count_0,global_position_longitude
0.0,-9.66003131866455,0.0,0.0,,0.0,8.542290550848122e-06,-0.07858548313379288,1492.0,,,1067.0,0.0,,,0.0,1.3137743473052979,,1500.0,0.0,,0.0,,0.0,1602.0,1500.0,-3.995459379301497e-06,0.0,,,0.0,0.0,-52.68035125732422,-4.321006399959083e-06,,4.961923,1418.0,,1570.0,0.0,1500.0,,,,,,,,,,,,,,,,
0.09992200000000029,-9.693004608154297,0.0,0.0,,0.0,1.4425703110660194e-05,-0.07548624277114868,1492.0,,,1067.0,0.0,,,0.0,1.3162375688552856,,1500.0,0.0,,0.0,,0.0,1602.0,1500.0,-1.9026962708099387e-06,0.0,,,0.0,0.0,-0.07435224205255508,-4.824605789593475e-06,,5.061845,1418.0,,1570.0,0.0,1500.0,,,,,,,,,,,,,,,,
0.2000510000000002,-9.704865455627441,0.0,0.0,,0.0,1.3211408974879822e-05,-0.06807708740234375,1492.0,,,1067.0,0.0,,,5.0,1.321496605873108,,1500.0,0.0,,0.0,,0.0,1602.0,1500.0,1.644276135145443e-05,0.0,,,0.0,1.0,-0.03186524659395218,-4.282225356001511e-06,,5.161974,1418.0,,1570.0,5.0,1500.0,,,,,,,,,,,,,,,,
0.29999299999999973,-9.73055648803711,0.0,0.0,,0.0,1.2686256941459559e-05,-0.0798162892460823,1492.0,,,1067.0,0.0,,,5.0,1.3226609230041504,,1500.0,0.0,,0.0,,0.0,1602.0,1500.0,5.426162529385962e-07,0.0,,,0.0,1.0,-0.12215010821819305,-1.2749070986488093e-05,,5.261915999999999,1418.0,,1570.0,5.0,1500.0,,,,,,,,,,,,,,,,
0.39993500000000015,-9.731179237365723,0.0,0.0,,0.0,-3.1372989350617217e-06,-0.08495469391345978,1492.0,,,1068.0,0.0,,,5.0,1.3200558423995972,,1500.0,0.0,,0.0,,0.0,1602.0,1500.0,6.591821496459199e-06,0.0,,,0.0,1.0,0.08231855183839798,-1.4506962114471488e-05,,5.361858,1418.0,,1569.0,5.0,1500.0,,,,,,,,,,,,,,,,
0.5,-9.729808807373047,0.0,0.0,,0.0,-2.1747602001900332e-05,-0.09552726149559021,1491.0,,,1067.0,0.0,,,5.0,1.324181318283081,,1500.0,0.0,,0.0,,0.0,1603.0,1501.0,-1.1206232879818303e-05,0.0,,,0.0,1.0,0.03717612102627754,-6.321952731532388e-06,,5.461923,1417.0,,1570.0,5.0,1500.0,,,,,,,,,,,,,,,,
0.6000139999999998,-9.716079711914062,0.0,0.0,,0.0,-2.3423858237399286e-05,-0.08493001759052277,1492.0,,,1068.0,0.0,,,5.0,1.323057770729065,,1500.0,0.0,,0.0,,0.0,1602.0,1500.0,-2.72104134229391e-06,0.0,,,0.0,1.0,-0.1009066104888916,1.092015924941761e-05,,5.5619369999999995,1418.0,,1569.0,5.0,1500.0,,,,,,,,,,,,,,,,
0.7000630000000001,-9.713838577270508,0.0,0.0,,0.0,-1.2807479006718167e-05,-0.07798397541046143,1492.0,,,1068.0,0.0,,,5.0,1.3117420673370361,,1500.0,0.0,,0.0,,0.0,1602.0,1500.0,-6.133404941252173e-06,0.0,,,0.0,1.0,0.01593262329697609,1.2216216790972024e-06,,5.661986,1418.0,,1569.0,5.0,1500.0,,,,,,,,,,,,,,,,
0.8000300000000005,-9.69355297088623,0.0,0.0,,0.0,-1.3780848821319231e-05,-0.0804935023188591,1492.0,,,1067.0,0.0,,,5.0,1.3226181268692017,,1500.0,0.0,,0.0,,0.0,1602.0,1500.0,-6.770311216986785e-06,0.0,,,0.0,1.0,-0.1009066104888916,1.3745101808503137e-05,,5.761953,1418.0,,1570.0,5.0,1500.0,,,,,,,,,,,,,,,,
0.9000510000000004,-9.70767879486084,0.0,0.0,,0.0,-2.2306674432368266e-05,-0.07168220728635788,1492.0,,,1067.0,0.0,,,5.0,1.3173155784606934,,1500.0,0.0,,0.0,,0.0,1602.0,1500.0,2.6493400381864744e-07,0.0,,,0.0,1.0,-0.005310874432325363,1.954712405744715e-06,,5.861974,1418.0,,1570.0,5.0,1500.0,,,,,,,,,,,,,,,,
1.0000530000000003,-9.693778991699219,0.0,0.0,0.0,0.0,-1.379486540516621e-05,-0.07776108384132385,1492.0,0.0,0.0,1067.0,0.0,-0.05305800926062762,0.0,5.0,1.3207544088363647,0.0,1500.0,0.0,5.942404,0.0,0.0,0.0,1603.0,1500.0,1.022205817070557e-06,0.0,0.008028514559173916,0.0,0.0,1.0,0.013277186080813408,-4.4737233644082475e-06,0.0,5.961976,1417.0,0.0,1569.0,5.0,1500.0,,,,,,,,,,,,,,,,
1.099996,-9.691804885864258,0.0,0.0,0.0,0.0,2.9337763495926082e-05,-0.08258142322301865,1492.0,0.0,0.0,1067.0,0.0,-0.05305800926062762,0.0,5.0,1.3281186819076538,0.0,1500.0,0.0,6.022816,0.0,0.0,0.0,1602.0,1500.0,-1.6026271368054232e-06,0.0,0.008028514559173916,0.0,0.0,1.0,-0.026554372161626816,-5.865067668689595e-06,0.0,6.061919,1418.0,0.0,1570.0,5.0,1500.0,,,,,,,,,,,,,,,,
1.200044,-9.710604667663574,0.0,0.0,0.0,0.0,1.1345338102680619e-05,-0.07440792769193649,1490.0,0.0,0.0,1020.0,0.0,-0.05305800926062762,0.0,5.0,1.3130197525024414,0.0,1500.0,0.0,6.142427,0.0,0.0,0.0,1603.0,1500.0,-1.244604884058989e-05,0.0,0.008028514559173916,0.0,0.0,1.0,0.1593262255191803,-1.6808560461471515e-06,0.0,6.161967,1417.0,0.0,1568.0,5.0,1501.0,,,,,,,,,,,,,,,,
1.3000730000000003,-9.724257469177246,0.0,0.0,0.0,0.0,9.449644155291589e-06,-0.08364981412887573,1491.0,0.0,0.0,1020.0,0.0,-0.05305800926062762,0.0,5.0,1.3150200843811035,0.0,1500.0,0.0,6.222445,0.0,0.0,0.0,1602.0,1500.0,-2.579079619494525e-06,0.0,0.008028514559173916,0.0,0.0,1.0,-0.021243497729301453,8.072641019806058e-06,0.0,6.261996,1418.0,0.0,1568.0,5.0,1500.0,,,,,,,,,,,,,,,,
1.4000190000000003,-9.71674919128418,0.0,0.0,0.0,0.0,-2.029583206953792e-06,-0.06905427575111389,1491.0,0.0,0.0,1019.0,0.0,-0.05305800926062762,0.0,5.0,1.3253117799758911,0.0,1500.0,0.0,6.342344,0.0,0.0,0.0,1602.0,1500.0,-1.1733905399179301e-05,0.0,0.008028514559173916,0.0,0.0,1.0,-0.1433936059474945,-1.2060363949869264e-06,0.0,6.361942,1418.0,0.0,1568.0,5.0,1500.0,,,,,,,,,,,,,,,,
1.5000739999999997,-9.72091293334961,0.0,0.0,0.0,0.0,-1.0031985110542535e-05,-0.0732654482126236,1490.0,0.0,0.0,1019.0,0.0,-0.05305800926062762,0.0,5.0,1.3156256675720215,0.0,1500.0,0.0,6.422426,0.0,0.0,0.0,1603.0,1500.0,-9.501336975171694e-06,0.0,0.008028514559173916,0.0,0.0,1.0,0.0,4.013226214599597e-06,0.0,6.461996999999999,1417.0,0.0,1569.0,5.0,1500.0,,,,,,,,,,,,,,,,
1.6000769999999997,-9.705352783203125,0.0,0.0,0.0,0.0,-5.5473213539151014e-06,-0.0920678973197937,1491.0,0.0,0.0,1020.0,0.0,-0.05305800926062762,0.0,5.0,1.3163470029830933,0.0,1500.0,0.0,6.542857,0.0,0.0,0.0,1602.0,1500.0,-7.56265863413553e-06,0.0,0.008028514559173916,0.0,0.0,1.0,-0.12215010821819305,2.1236631892547467e-06,0.0,6.561999999999999,1418.0,0.0,1568.0,5.0,1500.0,,,,,,,,,,,,,,,,
1.7000099999999998,-9.709692001342773,0.0,0.0,0.0,0.0,-2.6426593091136418e-05,-0.06768892705440521,1491.0,0.0,0.0,1020.0,0.0,-0.05305800926062762,0.0,5.0,1.3168712854385376,0.0,1500.0,0.0,6.622821999999999,0.0,0.0,0.0,1602.0,1500.0,-3.968481747638345e-06,0.0,0.008028514559173916,0.0,0.0,1.0,-0.03186524659395218,1.8604420917061558e-05,0.0,6.661932999999999,1418.0,0.0,1568.0,5.0,1500.0,,,,,,,,,,,,,,,,
1.7999840000000003,-9.702600479125977,0.0,0.0,0.0,0.0,-1.0504311578486593e-05,-0.0828944593667984,1490.0,0.0,0.0,1019.0,0.0,-0.05305800926062762,0.0,5.0,1.3156955242156982,0.0,1500.0,0.0,6.742833999999999,0.0,0.0,0.0,1603.0,1500.0,-8.771097033937503e-06,0.0,0.008028514559173916,0.0,0.0,1.0,-0.13808274269104004,2.370065452898063e-06,0.0,6.761907,1417.0,0.0,1569.0,5.0,1500.0,,,,,,,,,,,,,,,,
1.9000770000000005,-9.700661659240723,0.0,0.0,0.0,0.0,-2.055111127437004e-06,-0.08448169380426407,1491.0,0.0,0.0,1020.0,0.0,-0.05305800926062762,0.0,5.0,1.3253889083862305,0.0,1500.0,0.0,6.822464,0.0,0.0,0.0,1602.0,1501.0,-9.582577692506996e-06,0.0,0.008028514559173916,0.0,0.0,1.0,-0.026554372161626816,4.0186072641387356e-06,0.0,6.862,1417.0,0.0,1568.0,5.0,1500.0,,,,,,,,,,,,,,,,
2.000039,-9.695549011230469,0.0,0.0,0.0,0.0,-9.435393910918061e-06,-0.06393743306398392,1490.0,0.0,0.0,1020.0,0.0,-0.05305800926062762,0.0,5.0,1.3236453533172607,0.0,1500.0,0.0,6.942406999999999,0.0,0.0,0.0,1603.0,1501.0,-2.331769305328847e-05,0.0,0.008028514559173916,0.0,0.0,1.0,-0.01593262329697609,4.177013100472883e-06,0.0,6.961962,1417.0,0.0,1568.0,5.0,1500.0,,,,,,,,,,,,,,,,
2.100021,-9.701416015625,0.0,0.0,0.0,0.0,4.013896718719261e-06,-0.08751610666513443,1491.0,0.0,0.0,1019.0,0.0,-0.05305800926062762,0.0,5.0,1.3253850936889648,0.0,1500.0,0.0,7.022811,0.0,0.0,0.0,1602.0,1500.0,-9.310596839603245e-06,0.0,0.008028514559173916,0.0,0.0,1.0,-0.11152836680412292,-4.596349424656819e-06,0.0,7.0619439999999996,1418.0,0.0,1568.0,5.0,1500.0,,,,,,,,,,,,,,,,
2.200062,-9.711858749389648,0.0,0.0,0.0,0.0,2.927896879292245e-07,-0.07803592830896378,1491.0,0.0,0.0,1019.0,0.0,-0.05305800926062762,0.0,5.0,1.3261981010437012,0.0,1500.0,0.0,7.142386999999999,0.0,0.0,0.0,1602.0,1500.0,1.971261285548175e-06,0.0,0.008028514559173916,0.0,0.0,1.0,0.03717612102627754,1.1307924988718694e-06,0.0,7.161985,1418.0,0.0,1568.0,5.0,1500.0,,,,,,,,,,,,,,,,
2.300071,-9.720199584960938,0.0,0.0,0.0,0.0,7.863189755637648e-06,-0.07524082809686661,1491.0,0.0,0.0,1020.0,0.0,-0.05305800926062762,0.0,5.0,1.318422555923462,0.0,1500.0,0.0,7.222453,0.0,0.0,0.0,1602.0,1500.0,-6.734781102094251e-06,0.0,0.008028514559173916,0.0,0.0,1.0,-0.05310874432325363,-2.5281573713943677e-07,0.0,7.261994,1418.0,0.0,1568.0,5.0,1500.0,,,,,,,,,,,,,,,,
2.400029,-9.713829040527344,0.0,0.0,0.0,0.0,-2.3688707364666614e-06,-0.08953070640563965,1491.0,0.0,0.0,1020.0,0.0,-0.05305800926062762,0.0,5.0,1.3238914012908936,0.0,1500.0,0.0,7.34237,0.0,0.0,0.0,1602.0,1500.0,-7.949397283035128e-06,0.0,0.008028514559173916,0.0,0.0,1.0,0.0,6.860623042328877e-06,0.0,7.361952,1418.0,0.0,1568.0,5.0,1500.0,,,,,,,,,,,,,,,,
2.5000540000000004,-9.708795547485352,0.0,0.0,0.0,0.0,-1.1393010945588737e-05,-0.0664181038737297,1490.0,0.0,0.0,1020.0,0.0,-0.05305800926062762,0.0,5.0,1.3232301473617554,0.0,1500.0,0.0,7.422434999999999,0.0,0.0,0.0,1603.0,1500.0,-1.412860476706769e-05,0.0,0.008028514559173916,0.0,0.0,1.0,-0.10621748864650726,-7.873200077369632e-06,0.0,7.461977,1418.0,0.0,1568.0,5.0,1500.0,,,,,,,,,,,,,,,,
2.600067,-9.720785140991211,0.0,0.0,0.0,0.0,-1.2553482902951406e-05,-0.08607713133096695,1490.0,0.0,0.0,1020.0,0.0,-0.05305800926062762,0.0,5.0,1.3157179355621338,0.0,1500.0,0.0,7.5429059999999994,0.0,0.0,0.0,1603.0,1500.0,-2.8466089853886745e-06,0.0,0.008028514559173916,0.0,0.0,1.0,-0.03186524659395218,5.479809208429922e-06,0.0,7.56199,1418.0,0.0,1568.0,5.0,1500.0,,,,,,,,,,,,,,,,
2.7000650000000004,-9.707261085510254,0.0,0.0,0.0,0.0,-2.706018240330936e-06,-0.07498843222856522,1491.0,0.0,0.0,1019.0,0.0,-0.05305800926062762,0.0,5.0,1.3180230855941772,0.0,1500.0,0.0,7.622789999999999,0.0,0.0,0.0,1602.0,1500.0,6.851087153057321e-06,0.0,0.008028514559173916,0.0,0.0,1.0,-0.042486995458602905,3.004613281187523e-06,0.0,7.661988,1418.0,0.0,1568.0,5.0,1500.0,,,,,,,,,,,,,,,,
2.8000619999999996,-9.711265563964844,0.0,0.0,0.0,0.0,-1.1547313245914774e-05,-0.08454357087612152,1491.0,0.0,0.0,1019.0,0.0,-0.05305800926062762,0.0,5.0,1.315824270248413,0.0,1500.0,0.0,7.742398,0.0,0.0,0.0,1602.0,1500.0,-6.045409910826587e-06,0.0,0.008028514559173916,0.0,0.0,1.0,-0.09028486907482147,9.259275844734953e-06,0.0,7.761984999999999,1418.0,0.0,1568.0,5.0,1500.0,,,,,,,,,,,,,,,,
2.900081,-9.70693588256836,0.0,0.0,0.0,0.0,-1.0907010257264863e-05,-0.06419885158538818,1491.0,0.0,0.0,1020.0,0.0,-0.05305800926062762,0.0,5.0,1.3182610273361206,0.0,1500.0,0.0,7.822419,0.0,0.0,0.0,1602.0,1500.0,9.70765071182409e-07,0.0,0.008028514559173916,0.0,0.0,1.0,-0.1433936059474945,-1.228358366056461e-05,0.0,7.862004,1418.0,0.0,1568.0,5.0,1500.0,,,,,,,,,,,,,,,,
3.0000020000000003,-9.719452857971191,0.0,0.0,0.0,0.0,-5.414597603215922e-06,-0.07175633311271667,1491.0,0.0,0.0,1020.0,0.0,-0.05305800926062762,0.0,5.0,1.3252499103546143,0.0,1500.0,0.0,7.942247999999999,0.0,0.0,0.0,1602.0,1500.0,-5.438341068417028e-06,0.0,0.008028514559173916,0.0,0.0,1.0,-0.06904137134552002,-7.101377197689939e-06,0.0,7.961925,1418.0,0.0,1568.0,5.0,1500.0,,,,,,,,,,,,,,,,
3.100022,-9.71462631225586,0.0,0.0,0.0,0.0,-1.467520785274054e-05,-0.08231153339147568,1490.0,0.0,0.0,1020.0,0.0,-0.05305800926062762,0.0,5.0,1.3113036155700684,0.0,1500.0,0.0,8.022836,0.0,0.0,0.0,1603.0,1500.0,-1.5791307676111434e-05,0.0,0.008028514559173916,0.0,0.0,1.0,-0.010621748864650726,-4.08620855619437e-06,0.0,8.061945,1418.0,0.0,1568.0,5.0,1500.0,,,,,,,,,,,,,,,,
3.200024,-9.711474418640137,0.0,0.0,0.0,0.0,1.7102570168473399e-06,-0.07929708063602448,1490.0,0.0,0.0,1020.0,0.0,-0.05305800926062762,0.0,5.0,1.3247747421264648,0.0,1500.0,0.0,8.142394,0.0,0.0,0.0,1603.0,1500.0,-3.9230121711082895e-06,0.0,0.008028514559173916,0.0,0.0,1.0,-0.09028486907482147,-1.2721515299000565e-06,0.0,8.161947,1418.0,0.0,1568.0,5.0,1500.0,,,,,,,,,,,,,,,,
3.300047,-9.714530944824219,0.0,0.0,0.0,0.0,1.2768404871187075e-05,-0.07651115953922272,1491.0,0.0,0.0,1019.0,0.0,-0.05305800926062762,0.0,5.0,1.3245761394500732,0.0,1500.0,0.0,8.222467,0.0,0.0,0.0,1602.0,1500.0,5.412921977863845e-07,0.0,0.008028514559173916,0.0,0.0,1.0,-0.09028486907482147,-8.594848930591793e-06,0.0,8.26197,1418.0,0.0,1568.0,5.0,1500.0,,,,,,,,,,,,,,,,
3.4000580000000005,-9.707469940185547,0.0,0.0,0.0,0.0,-6.543599043356022e-06,-0.07914577424526215,1491.0,0.0,0.0,1019.0,0.0,-0.05305800926062762,0.0,5.0,1.3239431381225586,0.0,1500.0,0.0,8.342398,0.0,0.0,0.0,1602.0,1500.0,-1.7874024524866111e-06,0.0,0.008028514559173916,0.0,0.0,1.0,-0.010621748864650726,5.497899485772109e-07,0.0,8.361981,1418.0,0.0,1568.0,5.0,1500.0,,,,,,,,,,,,,,,,
3.5000539999999996,-9.706716537475586,0.0,0.0,0.0,0.0,8.090296612375212e-06,-0.0892539769411087,1491.0,0.0,0.0,1020.0,0.0,-0.05305800926062762,0.0,5.0,1.3170068264007568,0.0,1500.0,0.0,8.422448,0.0,0.0,0.0,1602.0,1500.0,8.828092931854951e-06,0.0,0.008028514559173916,0.0,0.0,1.0,-0.03186524659395218,2.8732273004975483e-07,0.0,8.461977,1418.0,0.0,1568.0,5.0,1500.0,,,,,,,,,,,,,,,,
3.600022,-9.710250854492188,0.0,0.0,0.0,0.0,-9.303582960145425e-06,-0.0715334564447403,1491.0,0.0,0.0,1020.0,0.0,-0.05305800926062762,0.0,5.0,1.3192983865737915,0.0,1500.0,0.0,8.542931,0.0,0.0,0.0,1602.0,1500.0,-9.485916396334752e-06,0.0,0.008028514559173916,0.0,0.0,1.0,-0.042486995458602905,1.139855479555996e-06,0.0,8.561945,1418.0,0.0,1568.0,5.0,1500.0,,,,,,,,,,,,,,,,
3.7000140000000004,-9.70850658416748,0.0,0.0,0.0,0.0,-1.7785845105807617e-05,-0.07849955558776855,1490.0,0.0,0.0,1020.0,0.0,-0.05305800926062762,0.0,5.0,1.3244794607162476,0.0,1500.0,0.0,8.622767999999999,0.0,0.0,0.0,1603.0,1500.0,-6.334587670526725e-06,0.0,0.008028514559173916,0.0,0.0,1.0,0.04779786989092827,-3.800735331755377e-06,0.0,8.661937,1418.0,0.0,1568.0,5.0,1500.0,,,,,,,,,,,,,,,,
3.800014,-9.705751419067383,0.0,0.0,0.0,0.0,3.341648018449854e-06,-0.0845164805650711,1490.0,0.0,0.0,1020.0,0.0,-0.05305800926062762,0.0,5.0,1.320831060409546,0.0,1500.0,0.0,8.742407,0.0,0.0,0.0,1603.0,1500.0,2.9913345058510083e-06,0.0,0.008028514559173916,0.0,0.0,1.0,0.026554372161626816,-4.30336756999292e-06,0.0,8.761937,1418.0,0.0,1568.0,5.0,1500.0,,,,,,,,,,,,,,,,
3.900075,-9.72050666809082,0.0,0.0,0.0,0.0,-1.2108593260400937e-05,-0.08132905513048172,1491.0,0.0,0.0,1019.0,0.0,-0.05305800926062762,0.0,5.0,1.320212960243225,0.0,1500.0,0.0,8.822434,0.0,0.0,0.0,1602.0,1500.0,-1.142598857320755e-05,0.0,0.008028514559173916,0.0,0.0,1.0,0.06107505410909653,6.210799022169153e-07,0.0,8.861998,1418.0,0.0,1568.0,5.0,1500.0,,,,,,,,,,,,,,,,
4.000069000000001,-9.719746589660645,0.0,0.0,0.0,0.0,-1.5956039363244246e-05,-0.08540471643209457,1491.0,0.0,0.0,1019.0,0.0,-0.05305800926062762,0.0,5.0,1.3280727863311768,0.0,1500.0,0.0,8.942373,0.0,0.0,0.0,1602.0,1500.0,8.89729708432695e-06,0.0,0.008028514559173916,0.0,0.0,1.0,0.07169680297374725,1.0412656713074506e-05,0.0,8.961992,1418.0,0.0,1568.0,5.0,1500.0,,,,,,,,,,,,,,,,
4.100060999999999,-9.717480659484863,0.0,0.0,0.0,0.0,-1.7251957216440397e-05,-0.07392770051956177,1491.0,0.0,0.0,1020.0,0.0,-0.05305800926062762,0.0,5.0,1.3334928750991821,0.0,1500.0,0.0,9.022929,0.0,0.0,0.0,1602.0,1500.0,-4.904693950983688e-06,0.0,0.008028514559173916,0.0,0.0,1.0,0.14073817431926727,3.5382570968960307e-06,0.0,9.061983999999999,1418.0,0.0,1568.0,5.0,1500.0,,,,,,,,,,,,,,,,
4.200024,-9.704665184020996,0.0,0.0,0.0,0.0,-3.6174179815662087e-06,-0.08029672503471375,1491.0,0.0,0.0,1020.0,0.0,-0.05305800926062762,0.0,5.0,1.3201217651367188,0.0,1500.0,0.0,9.142439,0.0,0.0,0.0,1602.0,1500.0,-1.107094851452274e-05,0.0,0.008028514559173916,0.0,0.0,1.0,0.058419618755578995,-5.65683194721691e-06,0.0,9.161947,1418.0,0.0,1568.0,5.0,1500.0,,,,,,,,,,,,,,,,
4.300043,-9.697433471679688,0.0,0.0,0.0,0.0,-2.4346926528168546e-06,-0.08295375853776932,1490.0,0.0,0.0,1019.0,0.0,-0.05305800926062762,0.0,5.0,1.3073562383651733,0.0,1500.0,0.0,9.222407,0.0,0.0,0.0,1603.0,1500.0,-4.928622820733035e-06,0.0,0.008028514559173916,0.0,0.0,1.0,0.03452068567276001,1.8118862659865128e-06,0.0,9.261966,1418.0,0.0,1569.0,5.0,1500.0,,,,,,,,,,,,,,,,
4.400181000000001,-9.707846641540527,0.0,0.0,0.0,0.0,8.467545596150899e-06,-0.07508058100938797,1491.0,0.0,0.0,1020.0,0.0,-0.05305800926062762,0.0,5.0,1.3248255252838135,0.0,1500.0,0.0,9.342366,0.0,0.0,0.0,1602.0,1500.0,3.823026799967043e-06,0.0,0.008028514559173916,0.0,0.0,1.0,0.15401536226272583,-1.1952792484958985e-06,0.0,9.362104,1418.0,0.0,1568.0,5.0,1500.0,,,,,,,,,,,,,,,,
4.500025,-9.704936981201172,0.0,0.0,0.0,0.0,4.4831195653215405e-06,-0.0809316337108612,1490.0,0.0,0.0,1020.0,0.0,-0.05305800926062762,0.0,5.0,1.3256527185440063,0.0,1500.0,0.0,9.422424,0.0,0.0,0.0,1603.0,1500.0,-4.856702110661063e-06,0.0,0.008028514559173916,0.0,0.0,1.0,0.029209809377789497,-1.0216345297820847e-05,0.0,9.461948,1418.0,0.0,1568.0,5.0,1500.0,,,,,,,,,,,,,,,,
4.599989999999999,-9.717702865600586,0.0,0.0,0.0,0.0,1.1960084217260332e-06,-0.08043710887432098,1490.0,0.0,0.0,1020.0,0.0,-0.05305800926062762,0.0,5.0,1.3218047618865967,0.0,1500.0,0.0,9.542736999999999,0.0,0.0,0.0,1603.0,1500.0,-3.959539406899992e-06,0.0,0.008028514559173916,0.0,0.0,1.0,0.14073817431926727,-3.7054310444889524e-06,0.0,9.561912999999999,1418.0,0.0,1568.0,5.0,1500.0,,,,,,,,,,,,,,,,
4.700054000000001,-9.702034950256348,0.0,0.0,0.0,0.0,-2.741102622371194e-06,-0.0827823132276535,1490.0,0.0,0.0,1019.0,0.0,-0.05305800926062762,0.0,5.0,1.3179497718811035,0.0,1501.0,0.0,9.622855,0.0,0.0,0.0,1603.0,1500.0,-1.1562484925495174e-05,0.0,0.008028514559173916,0.0,0.0,1.0,-0.05310874432325363,-6.234643824924708e-07,0.0,9.661977,1417.0,0.0,1569.0,5.0,1500.0,,,,,,,,,,,,,,,,
4.800057999999999,-9.702043533325195,0.0,0.0,0.0,0.0,4.151443273482192e-06,-0.07528164982795715,1490.0,0.0,0.0,1019.0,0.0,-0.05305800926062762,0.0,5.0,1.3148701190948486,0.0,1501.0,0.0,9.742806999999999,0.0,0.0,0.0,1603.0,1500.0,-1.2072206220925165e-05,0.0,0.008028514559173916,0.0,0.0,1.0,0.03717612102627754,-4.653406277494236e-06,0.0,9.761980999999999,1417.0,0.0,1569.0,5.0,1500.0,,,,,,,,,,,,,,,,
4.900023999999999,-9.718144416809082,0.0,0.0,0.0,0.0,8.757529484667632e-06,-0.0836322158575058,1491.0,0.0,0.0,1020.0,0.0,-0.05305800926062762,0.0,5.0,1.3232073783874512,0.0,1500.0,0.0,9.822434,0.0,0.0,0.0,1602.0,1500.0,2.6332952428722203e-07,0.0,0.008028514559173916,0.0,0.0,1.0,0.01858806051313877,8.838741756373616e-06,0.0,9.861946999999999,1418.0,0.0,1568.0,5.0,1500.0,,,,,,,,,,,,,,,,
5.000072,-9.71627140045166,0.0,0.0,0.0,0.0,-1.1073105302774325e-05,-0.07013826072216034,1491.0,0.0,0.0,1020.0,0.0,-0.05305800926062762,0.0,5.0,1.314186692237854,0.0,1500.0,0.0,9.942392,0.0,0.0,0.0,1602.0,1500.0,-1.793082231929366e-05,0.0,0.008028514559173916,0.0,0.0,1.0,0.23367847502231598,-7.131862277039668e-06,0.0,9.961995,1418.0,0.0,1568.0,5.0,1500.0,,,,,,,,,,,,,,,,
5.100067,-9.706522941589355,0.0,0.0,0.0,0.0,-3.3740267639799676e-06,-0.07541689276695251,1491.0,0.0,0.0,1019.0,0.0,-0.05305800926062762,0.0,5.0,1.324189305305481,0.0,1500.0,0.0,10.022805,0.0,0.0,0.0,1602.0,1500.0,-1.587434351583984e-05,0.0,0.008028514559173916,0.0,0.0,1.0,0.2761654853820801,-5.070078871675506e-06,0.0,10.06199,1419.0,0.0,1568.0,5.0,1500.0,,,,,,,,,,,,,,,,
5.199986999999999,-9.703855514526367,0.0,0.0,0.0,0.0,-2.4609695568791917e-06,-0.08059092611074448,1491.0,0.0,0.0,1020.0,0.0,-0.05305800926062762,0.0,5.0,1.3310534954071045,0.0,1500.0,0.0,10.142382999999999,0.0,0.0,0.0,1602.0,1500.0,7.996813099364042e-06,0.0,0.008028514559173916,0.0,0.0,1.0,0.0929403007030487,-1.3521001299214233e-06,0.0,10.161909999999999,1419.0,0.0,1568.0,5.0,1501.0,,,,,,,,,,,,,,,,
5.299999000000001,-9.722413063049316,0.0,0.0,0.0,0.0,5.686964503946148e-06,-0.07900632917881012,1491.0,0.0,0.0,1020.0,0.0,-0.05305800926062762,0.0,5.0,1.3221545219421387,0.0,1500.0,0.0,10.222408999999999,0.0,0.0,0.0,1602.0,1500.0,5.4283464933727014e-06,0.0,0.008028514559173916,0.0,0.0,1.0,0.1513599157333374,3.86431690081786e-06,0.0,10.261922,1421.0,0.0,1568.0,5.0,1500.0,,,,,,,,,,,,,,,,
5.400028999999999,-9.623465538024902,0.0,0.0,0.0,0.0,6.893119634037598e-06,-0.06740207970142365,1490.0,0.0,0.0,1020.0,0.0,-0.05305800926062762,0.0,5.0,1.2430176734924316,0.0,1500.0,0.0,10.34241,0.0,0.0,0.0,1602.0,1500.0,-2.998077389893797e-06,0.0,0.008028514559173916,0.0,0.0,1.0,0.3292742073535919,-0.00019885695773016508,0.0,10.361951999999999,1423.0,0.0,1568.0,5.0,1500.0,,,,,,,,,,,,,,,,
5.5000919999999995,-9.787559509277344,0.0,0.0,0.0,0.0,-1.672566938967804e-06,-0.06495721638202667,1490.0,0.0,0.0,1020.0,0.0,-0.05305800926062762,0.0,5.0,1.323028564453125,0.0,1500.0,0.0,10.422429,0.0,0.0,0.0,1602.0,1500.0,3.316402268450334e-07,0.0,0.008028514559173916,0.0,0.0,1.0,0.23367847502231598,-0.00012334414171510214,0.0,10.462015,1424.0,0.0,1568.0,5.0,1500.0,,,,,,,,,,,,,,,,
5.600077,-9.91122055053711,0.0,0.0,0.0,0.0,-1.8486196817950113e-05,-0.08402912318706512,1490.0,0.0,0.0,1019.0,0.0,-0.05305800926062762,0.0,5.0,1.3561468124389648,0.0,1500.0,0.0,10.542783,0.0,0.0,0.0,1602.0,1501.0,5.9576343181128906e-06,0.0,0.008028514559173916,0.0,0.0,1.0,0.1513599157333374,-0.0004436903748183759,0.0,10.562,1426.0,0.0,1568.0,5.0,1500.0,,,,,,,,,,,,,,,,
5.700073000000001,-9.722347259521484,0.0,0.0,0.0,0.0,-1.3264115678262085e-05,-0.030661452561616898,1490.0,0.0,0.0,1020.0,0.0,-0.05305800926062762,0.0,5.0,1.2319282293319702,0.0,1500.0,0.0,10.622833,0.0,0.0,0.0,1602.0,1501.0,-7.127991131663941e-06,0.0,0.008028514559173916,0.0,0.0,1.0,0.14604905247688293,-5.108843153030088e-05,0.0,10.661996,1429.0,0.0,1567.0,5.0,1500.0,,,,,,,,,,,,,,,,
5.8000680000000004,-9.651217460632324,0.0,0.0,0.0,0.0,-2.540836756684516e-05,-0.08134984970092773,1490.0,0.0,0.0,1019.0,0.0,-0.05305800926062762,0.0,5.0,1.1971946954727173,0.0,1500.0,0.0,10.742379999999999,0.0,0.0,0.0,1601.0,1500.0,-1.3420477746925423e-06,0.0,0.008028514559173916,0.0,0.0,1.0,0.17260341346263885,-0.00014042440111297253,0.0,10.761991,1435.0,0.0,1567.0,5.0,1500.0,,,,,,,,,,,,,,,,
5.899996000000001,-9.931290626525879,0.0,0.0,0.0,0.0,-3.905719412700253e-05,-0.07039514183998108,1490.0,0.0,0.0,1019.0,0.0,-0.05305800926062762,0.0,5.0,1.2807646989822388,0.0,1500.0,0.0,10.822417,0.0,0.0,0.0,1601.0,1500.0,-4.312439185957375e-06,0.0,0.008028514559173916,0.0,0.0,1.0,0.284131795167923,-0.0010329679511979113,0.0,10.861919,1436.0,0.0,1567.0,5.0,1500.0,,,,,,,,,,,,,,,,
6.000476999999999,-9.849438667297363,0.0,0.0,0.0,0.0,-3.3936199610676524e-06,-0.10044267773628235,1490.0,0.0,0.0,1020.0,0.0,-0.05305800926062762,0.0,5.0,1.1876187324523926,0.0,1500.0,0.0,10.942451,0.0,0.0,0.0,1600.0,1500.0,3.5845945190991516e-06,0.0,0.008028514559173916,0.0,0.0,1.0,0.19650235772132874,-0.0007909791295508996,0.0,10.962399999999999,1442.0,0.0,1566.0,5.0,1500.0,,,,,,,,,,,,,,,,
6.100082,-9.483284950256348,0.0,0.0,0.0,0.0,-4.178104193540336e-06,-0.025228461250662804,1488.0,0.0,0.0,1019.0,0.0,-0.05305800926062762,0.0,5.0,0.92674720287323,0.0,1500.0,0.0,11.022834999999999,0.0,0.0,0.0,1601.0,1500.0,6.618659947721754e-06,0.0,0.008028514559173916,0.0,0.0,1.0,0.2788209021091461,-0.0015853090567077154,0.0,11.062005,1446.0,0.0,1567.0,5.0,1500.0,,,,,,,,,,,,,,,,
6.200019,-9.796993255615234,0.0,0.0,0.0,0.0,-7.962364832709433e-05,-0.06198354810476303,1488.0,0.0,0.0,1019.0,0.0,-0.05305800926062762,0.0,5.0,1.0062240362167358,0.0,1500.0,0.0,11.142377999999999,0.0,0.0,0.0,1599.0,1500.0,-1.293551176836803e-05,0.0,0.008028514559173916,0.0,0.0,1.0,0.22836759686470032,-0.0013738571870473262,0.0,11.161942,1458.0,0.0,1566.0,5.0,1500.0,,,,,,,,,,,,,,,,
6.3000739999999995,-9.93847942352295,0.0,0.0,0.0,0.0,-0.00011386185620016689,-0.03803721070289612,1488.0,0.0,0.0,1020.0,0.0,-0.05305800926062762,0.0,5.0,0.9911622405052185,0.0,1500.0,0.0,11.222437,0.0,0.0,0.0,1599.0,1500.0,3.2610138025682474e-06,0.0,0.008028514559173916,0.0,0.0,1.0,0.17525885999202728,-0.0016442295452682794,0.0,11.261997,1467.0,0.0,1564.0,5.0,1500.0,,,,,,,,,,,,,,,,
6.4000639999999995,-9.73556137084961,0.0,0.0,0.0,0.0,-0.00014476421261369986,-0.019759835675358772,1486.0,0.0,0.0,1020.0,0.0,-0.05305800926062762,0.0,5.0,0.7500704526901245,0.0,1500.0,0.0,11.342395999999999,0.0,0.0,0.0,1598.0,1500.0,1.5101023684917229e-05,0.0,0.008028514559173916,0.0,0.0,1.0,0.2018132209777832,-0.0025383150110087657,0.0,11.361987,1485.0,0.0,1563.0,5.0,1500.0,,,,,,,,,,,,,,,,
6.500027,-9.487310409545898,0.0,0.0,0.0,0.0,-2.841689720164072e-05,-0.15242892503738403,1485.0,0.0,0.0,1019.0,0.0,-0.05305800926062762,0.0,5.0,0.6402072310447693,0.0,1500.0,0.0,11.422435,0.0,0.0,0.0,1597.0,1500.0,-4.069650660142332e-06,0.0,0.008028514559173916,0.0,0.0,1.0,0.22305673360824585,-0.0005840633462335395,0.0,11.46195,1495.0,0.0,1563.0,5.0,1501.0,,,,,,,,,,,,,,,,
6.5999989999999995,-9.93185806274414,0.0,0.0,0.0,0.0,-8.037936742487576e-05,0.009194619953632355,1485.0,0.0,0.0,1020.0,0.0,-0.05305800926062762,0.0,5.0,0.6058797240257263,0.0,1500.0,0.0,11.542786999999999,0.0,0.0,0.0,1596.0,1501.0,1.6673585442394796e-05,0.0,0.008028514559173916,0.0,0.0,1.0,0.39831557869911194,-0.003071720169919117,0.0,11.561922,1509.0,0.0,1562.0,5.0,1500.0,,,,,,,,,,,,,,,,
6.700038,-9.685332298278809,0.0,0.0,0.0,0.0,-5.6546034353428255e-05,-0.11502666771411896,1485.0,0.0,0.0,1020.0,0.0,-0.05305800926062762,0.0,5.0,0.3275195360183716,0.0,1500.0,0.0,11.622947,0.0,0.0,0.0,1595.0,1501.0,9.747465830601064e-06,0.0,0.008028514559173916,0.0,0.0,1.0,0.0929403007030487,-0.003013690565959536,0.0,11.661961,1520.0,0.0,1562.0,5.0,1500.0,,,,,,,,,,,,,,,,
6.800052999999999,-10.227136611938477,0.0,0.0,0.0,0.0,-0.00011320257591309982,-0.07136349380016327,1485.0,0.0,0.0,1020.0,0.0,-0.05305800926062762,0.0,5.0,0.40725332498550415,0.0,1500.0,0.0,11.742474999999999,0.0,0.0,0.0,1594.0,1500.0,7.2646622213888095e-06,0.0,0.008028514559173916,0.0,0.0,1.0,0.31599703431129456,-0.0033063085116238947,0.0,11.761975999999999,1539.0,0.0,1561.0,5.0,1500.0,,,,,,,,,,,,,,,,
6.900042999999999,-9.690242767333984,0.0,0.0,0.0,0.0,-4.118271860013642e-07,-0.024272555485367775,1484.0,0.0,0.0,1019.0,0.0,-0.05305800926062762,0.0,5.0,0.06814184784889221,0.0,1500.0,0.0,11.822426,0.0,0.0,0.0,1593.0,1500.0,-7.706296871212909e-06,0.0,0.008028514559173916,0.0,0.0,1.0,0.22836759686470032,-0.001136951323030664,0.0,11.861965999999999,1556.0,0.0,1562.0,5.0,1500.0,,,,,,,,,,,,,,,,
7.00007,-9.471900939941406,0.0,0.0,0.0,0.0,-6.96943275564257e-05,-0.02757706493139267,1484.0,0.0,0.0,1019.0,0.0,-0.05305800926062762,0.0,5.0,-0.09637133777141571,0.0,1500.0,0.0,11.942383999999999,0.0,0.0,0.0,1591.0,1500.0,2.3324763824004926e-05,0.0,0.008028514559173916,0.0,0.0,1.0,0.13808274269104004,-0.002111982321747348,0.0,11.961993,1575.0,0.0,1562.0,5.0,1500.0,,,,,,,,,,,,,,,,
7.100071000000001,-10.033132553100586,0.0,0.0,0.0,0.0,-0.0002439810885059391,-0.0036824927665293217,1484.0,0.0,0.0,1020.0,0.0,-0.05305800926062762,0.0,5.0,-0.0886252224445343,0.0,1500.0,0.0,12.022772,0.0,0.0,0.0,1590.0,1500.0,3.674346727480157e-05,0.0,0.008028514559173916,0.0,0.0,1.0,0.18853604793548584,-0.003615607364432452,0.0,12.061994,1592.0,0.0,1561.0,5.0,1500.0,,,,,,,,,,,,,,,,
7.200036999999999,-10.088113784790039,0.0,0.0,0.0,0.0,-0.00023521435686018672,-0.021492091938853264,1484.0,0.0,0.0,1019.0,0.0,-0.05305800926062762,0.0,5.0,-0.27294403314590454,0.0,1500.0,0.0,12.142242999999999,0.0,0.0,0.0,1588.0,1500.0,1.743609390234549e-05,0.0,0.008028514559173916,0.0,0.0,1.0,0.2761654853820801,-0.0030380603104540375,0.0,12.161959999999999,1620.0,0.0,1561.0,5.0,1500.0,,,,,,,,,,,,,,,,
7.300019999999999,-10.081229209899902,0.0,0.0,0.0,0.0,-0.00013701770378178312,-0.12581294775009155,1484.0,0.0,0.0,1019.0,0.0,-0.05305800926062762,0.0,5.0,-0.28087952733039856,0.0,1500.0,0.0,12.222449,0.0,0.0,0.0,1587.0,1500.0,-1.4188499579387354e-06,0.0,0.008028514559173916,0.0,0.0,1.0,0.28944265842437744,-0.0013568489763648597,0.0,12.261942999999999,1629.0,0.0,1561.0,5.0,1500.0,,,,,,,,,,,,,,,,
7.4000770000000005,-9.490018844604492,0.0,0.0,0.0,0.0,-3.8256563444187595e-05,-0.0010622066911309958,1483.0,0.0,0.0,1019.0,0.0,-0.05305800926062762,0.0,5.0,-0.7123627066612244,0.0,1500.0,0.0,12.342409,0.0,0.0,0.0,1587.0,1500.0,1.6558548777640091e-06,0.0,0.008028514559173916,0.0,0.0,1.0,0.19119147956371307,-0.0025721826698596826,0.0,12.362,1655.0,0.0,1561.0,5.0,1500.0,,,,,,,,,,,,,,,,
7.500025999999999,-9.584434509277344,0.0,0.0,0.0,0.0,3.91802783650662e-05,0.037977613508701324,1484.0,0.0,0.0,1019.0,0.0,-0.05305800926062762,0.0,5.0,-0.9737556576728821,0.0,1500.0,0.0,12.422405,0.0,0.0,0.0,1586.0,1500.0,1.2362982523401502e-05,0.0,0.008028514559173916,0.0,0.0,1.0,0.18056973814964294,-0.0027216814542904773,0.0,12.461948999999999,1678.0,0.0,1560.0,5.0,1500.0,,,,,,,,,,,,,,,,
7.600119,-9.64832878112793,0.0,0.0,0.0,0.0,5.1782716196075746e-05,-0.011744892224669456,1483.0,0.0,0.0,1019.0,0.0,-0.05305800926062762,0.0,5.0,-1.1203497648239136,0.0,1500.0,0.0,12.542938999999999,0.0,0.0,0.0,1586.0,1500.0,5.928273603057766e-07,0.0,0.008028514559173916,0.0,0.0,1.0,0.2708545923233032,-0.0031288933491258044,0.0,12.562042,1701.0,0.0,1560.0,5.0,1500.0,,,,,,,,,,,,,,,,
7.700071,-10.08377456665039,0.0,0.0,0.0,0.0,-6.930467221460556e-06,0.044678010046482086,1483.0,0.0,0.0,1019.0,0.0,-0.05305800926062762,0.0,5.0,-1.1818735599517822,0.0,1500.0,0.0,12.62281,0.0,0.0,0.0,1586.0,1500.0,3.4950370108916815e-06,0.0,0.008028514559173916,0.0,0.0,1.0,0.284131795167923,-0.0033125864457599708,0.0,12.661994,1720.0,0.0,1560.0,5.0,1500.0,,,,,,,,,,,,,,,,
7.799995,-9.784735679626465,0.0,0.0,0.0,0.0,-0.0001000455864748534,0.043253857642412186,1483.0,0.0,0.0,1019.0,0.0,-0.05305800926062762,0.0,5.0,-1.5104740858078003,0.0,1501.0,0.0,12.742318,0.0,0.0,0.0,1585.0,1500.0,2.3960338742695875e-05,0.0,0.008028514559173916,0.0,0.0,1.0,0.4195590913295746,-0.0037585031218206662,0.0,12.761918,1744.0,0.0,1560.0,5.0,1500.0,,,,,,,,,,,,,,,,
7.900099999999999,-9.94724178314209,0.0,0.0,0.0,0.0,-0.00020841802138366885,0.03621754050254822,1482.0,0.0,0.0,1019.0,0.0,-0.05305800926062762,0.0,5.0,-1.491827130317688,0.0,1500.0,0.0,12.822434,0.0,0.0,0.0,1585.0,1500.0,1.1704750660957906e-05,0.0,0.008028514559173916,0.0,0.0,1.0,0.25492197275161743,-0.0013343855766740967,0.0,12.862022999999999,1752.0,0.0,1560.0,5.0,1500.0,,,,,,,,,,,,,,,,
8.000039000000001,-10.43955135345459,0.0,0.0,0.0,0.0,-0.00039183552050634695,0.02555309794843197,1482.0,0.0,0.0,1019.0,0.0,-0.05305800926062762,0.0,5.0,-1.2748383283615112,0.0,1500.0,0.0,12.942416,0.0,0.0,0.0,1585.0,1500.0,3.8827690725994826e-05,0.0,0.008028514559173916,0.0,0.0,1.0,0.21509040892124176,-0.002739730872533894,0.0,12.961962,1765.0,0.0,1560.0,5.0,1500.0,,,,,,,,,,,,,,,,
8.100052999999999,-9.710248947143555,0.0,0.0,0.0,0.0,-0.00024996749557810825,0.03793157637119293,1482.0,0.0,0.0,1019.0,0.0,-0.05305800926062762,0.0,5.0,-1.6345443725585938,0.0,1500.0,0.0,13.022928,0.0,0.0,0.0,1585.0,1500.0,4.3243460184326774e-05,0.0,0.008028514559173916,0.0,0.0,1.0,0.22571216523647308,-0.001307316130646825,0.0,13.061976,1793.0,0.0,1560.0,5.0,1500.0,,,,,,,,,,,,,,,,
8.200064999999999,-9.306278228759766,0.0,0.0,0.0,0.0,-2.270780656970332e-05,-0.01830701343715191,1483.0,0.0,0.0,1020.0,0.0,-0.05305800926062762,0.0,5.0,-1.7519069910049438,0.0,1500.0,0.0,13.142394999999999,0.0,0.0,0.0,1584.0,1500.0,2.025966675358354e-06,0.0,0.008028514559173916,0.0,0.0,1.0,0.3797275125980377,-0.0008318747768917785,0.0,13.161988,1819.0,0.0,1559.0,5.0,1500.0,,,,,,,,,,,,,,,,
8.300066000000001,-9.288107872009277,0.0,0.0,0.0,0.0,0.0001607462837914324,0.0272350013256073,1483.0,0.0,0.0,1020.0,0.0,-0.05305800926062762,0.0,5.0,-1.9979838132858276,0.0,1500.0,0.0,13.222432,0.0,0.0,0.0,1584.0,1500.0,-3.6610069464279066e-05,0.0,0.008028514559173916,0.0,0.0,1.0,0.286787211894989,-0.0016715526937997867,0.0,13.261989,1844.0,0.0,1559.0,5.0,1500.0,,,,,,,,,,,,,,,,
8.400023999999998,-9.386455535888672,0.0,0.0,0.0,0.0,0.0002226406409874668,0.009413822554051876,1483.0,0.0,0.0,1019.0,0.0,-0.05305800926062762,0.0,5.0,-2.2500083446502686,0.0,1500.0,0.0,13.342402,0.0,0.0,0.0,1584.0,1500.0,-5.742609742428606e-05,0.0,0.008028514559173916,0.0,0.0,1.0,0.40097102522850037,-0.0028321355403528635,0.0,13.361946999999999,1856.0,0.0,1559.0,5.0,1500.0,,,,,,,,,,,,,,,,
8.500060000000001,-9.462337493896484,0.0,0.0,0.0,0.0,0.0001776299513814173,-0.011892516165971756,1482.0,0.0,0.0,1020.0,0.0,-0.05305800926062762,0.0,5.0,-2.493321418762207,0.0,1500.0,0.0,13.422386,0.0,0.0,0.0,1584.0,1500.0,-4.7348505842622375e-05,0.0,0.008028514559173916,0.0,0.0,1.0,0.22571216523647308,-0.002191667144432124,0.0,13.461983,1873.0,0.0,1559.0,5.0,1500.0,,,,,,,,,,,,,,,,
8.600017000000001,-9.784252166748047,0.0,0.0,0.0,0.0,3.863043654131231e-05,0.059749431908130646,1482.0,0.0,0.0,1020.0,0.0,-0.05305800926062762,0.0,5.0,-2.517394542694092,0.0,1500.0,0.0,13.542779,0.0,0.0,0.0,1584.0,1501.0,-1.2941415252367074e-05,0.0,0.008028514559173916,0.0,0.0,1.0,0.252266526222229,-0.000660890667288728,0.0,13.56194,1883.0,0.0,1559.0,5.0,1500.0,,,,,,,,,,,,,,,,
8.700043999999998,-9.861909866333008,0.0,0.0,0.0,0.0,-0.0001517153491405644,0.04681010544300079,1483.0,0.0,0.0,1019.0,0.0,-0.05305800926062762,0.0,5.0,-2.486910581588745,0.0,1500.0,0.0,13.622847,0.0,0.0,0.0,1584.0,1500.0,2.8060020368034163e-05,0.0,0.008028514559173916,0.0,0.0,1.0,0.38238295912742615,-0.0008068833247228791,0.0,13.661966999999999,1885.0,0.0,1559.0,5.0,1501.0,,,,,,,,,,,,,,,,
8.800028000000001,-9.860007286071777,0.0,0.0,0.0,0.0,-0.00041774431983881874,0.02805359847843647,1482.0,0.0,0.0,1020.0,0.0,-0.05305800926062762,0.0,5.0,-2.498112678527832,0.0,1500.0,0.0,13.742389999999999,0.0,0.0,0.0,1584.0,1500.0,8.017360799702682e-05,0.0,0.008028514559173916,0.0,0.0,1.0,0.41424819827079773,-0.004726829014322128,0.0,13.761951,1902.0,0.0,1559.0,5.0,1500.0,,,,,,,,,,,,,,,,
8.900074,-9.215086936950684,0.0,0.0,0.0,0.0,-0.00027086542663224756,0.013261442072689533,1482.0,0.0,0.0,1020.0,0.0,-0.05305800926062762,0.0,5.0,-2.7993874549865723,0.0,1500.0,0.0,13.822448,0.0,0.0,0.0,1584.0,1500.0,7.071341254508853e-05,0.0,0.008028514559173916,0.0,0.0,1.0,0.39034926891326904,-0.0007062971737630912,0.0,13.861996999999999,1940.0,0.0,1559.0,5.0,1500.0,,,,,,,,,,,,,,,,
9.000053999999999,-9.09737777709961,0.0,0.0,0.0,0.0,-8.633004678662013e-05,0.026005959138274193,1483.0,0.0,0.0,1019.0,0.0,-0.05305800926062762,0.0,5.0,-2.713005781173706,0.0,1500.0,0.0,13.942419,0.0,0.0,0.0,1584.0,1500.0,2.1214965720223154e-05,0.0,0.008028514559173916,0.0,0.0,1.0,0.23367847502231598,-3.851635737675879e-05,0.0,13.961977,1940.0,0.0,1559.0,5.0,1500.0,,,,,,,,,,,,,,,,
9.100052999999999,-9.068870544433594,0.0,0.0,0.0,0.0,7.239794645871933e-05,0.03870528191328049,1482.0,0.0,0.0,1020.0,0.0,-0.05305800926062762,0.0,5.0,-2.714555263519287,0.0,1500.0,0.0,14.022751,0.0,0.0,0.0,1584.0,1500.0,-2.3225210216880133e-05,0.0,0.008028514559173916,0.0,0.0,1.0,0.4301808178424835,-9.186117749787601e-05,0.0,14.061976,1940.0,0.0,1559.0,5.0,1500.0,,,,,,,,,,,,,,,,
9.200057999999999,-9.214240074157715,0.0,0.0,0.0,0.0,0.00015717403289760591,0.04415491595864296,1482.0,0.0,0.0,1020.0,0.0,-0.05305800926062762,0.0,5.0,-2.743086338043213,0.0,1500.0,0.0,14.142425,0.0,0.0,0.0,1584.0,1500.0,-5.5174861556037806e-05,0.0,0.008028514559173916,0.0,0.0,1.0,0.37441664934158325,5.7427702570511924e-05,0.0,14.161980999999999,1940.0,0.0,1559.0,5.0,1500.0,,,,,,,,,,,,,,,,
9.300045999999998,-9.393487930297852,0.0,0.0,0.0,0.0,0.00016882547644921986,0.06991125643253326,1483.0,0.0,0.0,1019.0,0.0,-0.05305800926062762,0.0,5.0,-2.8153069019317627,0.0,1500.0,0.0,14.222413,0.0,0.0,0.0,1583.0,1500.0,-5.230893595651081e-05,0.0,0.008028514559173916,0.0,0.0,1.0,0.4195590913295746,-9.304441002235527e-05,0.0,14.261968999999999,1941.0,0.0,1559.0,5.0,1500.0,,,,,,,,,,,,,,,,
9.399998,-9.531534194946289,0.0,0.0,0.0,0.0,0.00010222207535657378,0.0716877430677414,1482.0,0.0,0.0,1020.0,0.0,-0.05305800926062762,0.0,5.0,-2.855607271194458,0.0,1500.0,0.0,14.342404,0.0,0.0,0.0,1584.0,1500.0,-2.9822393714465977e-05,0.0,0.008028514559173916,0.0,0.0,1.0,0.34786227345466614,-4.9124114534010225e-05,0.0,14.361920999999999,1940.0,0.0,1559.0,5.0,1500.0,,,,,,,,,,,,,,,,
9.500043999999999,-9.562570571899414,0.0,0.0,0.0,0.0,1.1487650570248662e-05,0.05735990032553673,1483.0,0.0,0.0,1019.0,0.0,-0.05305800926062762,0.0,5.0,-2.8617963790893555,0.0,1500.0,0.0,14.422403,0.0,0.0,0.0,1583.0,1500.0,4.996295988798468e-06,0.0,0.008028514559173916,0.0,0.0,1.0,0.35848402976989746,-2.151239322038349e-05,0.0,14.461967,1941.0,0.0,1559.0,5.0,1500.0,,,,,,,,,,,,,,,,
9.600047,-9.521980285644531,0.0,0.0,0.0,0.0,-8.683264854739768e-05,0.05312420055270195,1482.0,0.0,0.0,1020.0,0.0,-0.05305800926062762,0.0,5.0,-2.848217487335205,0.0,1500.0,0.0,14.542855999999999,0.0,0.0,0.0,1584.0,1500.0,1.5143997919411035e-05,0.0,0.008028514559173916,0.0,0.0,1.0,0.39300471544265747,1.4505931976324005e-05,0.0,14.561969999999999,1940.0,0.0,1559.0,5.0,1500.0,,,,,,,,,,,,,,,,
9.700023999999999,-9.400275230407715,0.0,0.0,0.0,0.0,-0.0001311026708572369,0.05258183926343918,1482.0,0.0,0.0,1020.0,0.0,-0.05305800926062762,0.0,5.0,-2.8100595474243164,0.0,1500.0,0.0,14.623244999999999,0.0,0.0,0.0,1584.0,1500.0,2.201646602656298e-05,0.0,0.008028514559173916,0.0,0.0,1.0,0.41424819827079773,3.3636444648488684e-05,0.0,14.661947,1940.0,0.0,1559.0,5.0,1500.0,,,,,,,,,,,,,,,,
9.80009,-9.322083473205566,0.0,0.0,0.0,0.0,-0.00010753777512601224,0.055339276790618896,1482.0,0.0,0.0,1019.0,0.0,-0.05305800926062762,0.0,5.0,-2.7708492279052734,0.0,1500.0,0.0,14.742379999999999,0.0,0.0,0.0,1584.0,1500.0,3.4362243007887766e-05,0.0,0.008028514559173916,0.0,0.0,1.0,0.4195590913295746,3.1590727944113143e-06,0.0,14.762013,1940.0,0.0,1559.0,5.0,1501.0,,,,,,,,,,,,,,,,
9.900074,-9.206892013549805,0.0,0.0,0.0,0.0,-4.341167950879717e-05,0.052333567291498184,1482.0,0.0,0.0,1019.0,0.0,-0.05305800926062762,0.0,5.0,-2.777797222137451,0.0,1500.0,0.0,14.822417999999999,0.0,0.0,0.0,1584.0,1500.0,1.1783130560715976e-05,0.0,0.008028514559173916,0.0,0.0,1.0,0.5443646311759949,5.564680299207072e-05,0.0,14.861996999999999,1940.0,0.0,1560.0,5.0,1500.0,,,,,,,,,,,,,,,,
10.000027,-9.257189750671387,0.0,0.0,0.0,0.0,3.2990220905279076e-05,0.056401241570711136,1482.0,0.0,0.0,1020.0,0.0,-0.05305800926062762,0.0,5.0,-2.7695279121398926,0.0,1500.0,0.0,14.942400999999998,0.0,0.0,0.0,1584.0,1500.0,-8.396695660839723e-06,0.0,0.008028514559173916,0.0,0.0,1.0,0.35051771998405457,-3.5372160376587186e-05,0.0,14.96195,1940.0,0.0,1559.0,5.0,1500.0,,,,,,,,,,,,,,,,
10.100037,-9.282919883728027,0.0,0.0,0.0,0.0,6.811377460894013e-05,0.06842848658561707,1482.0,0.0,0.0,1019.0,0.0,-0.05305800926062762,0.0,5.0,-2.7873125076293945,0.0,1500.0,0.0,15.022777,0.0,0.0,0.0,1584.0,1500.0,-1.104819505881347e-05,0.0,0.008028514559173916,0.0,0.0,1.0,0.4275254011154175,-3.4443130186687245e-05,0.0,15.06196,1940.0,0.0,1560.0,5.0,1500.0,,,,,,,,,,,,,,,,
10.200026000000001,-9.263506889343262,0.0,0.0,0.0,0.0,0.00010042292993875505,0.055244430899620056,1482.0,0.0,0.0,1020.0,0.0,-0.05305800926062762,0.0,5.0,-2.8551697731018066,0.0,1500.0,0.0,15.142403,0.0,0.0,0.0,1584.0,1500.0,-2.9235320625594736e-05,0.0,0.008028514559173916,0.0,0.0,1.0,0.573574423789978,0.00011271852070263832,0.0,15.161949,1940.0,0.0,1559.0,5.0,1500.0,,,,,,,,,,,,,,,,
10.300049000000001,-9.436408996582031,0.0,0.0,0.0,0.0,4.768325400844935e-05,0.051086097955703735,1482.0,0.0,0.0,1019.0,0.0,-0.05305800926062762,0.0,5.0,-2.816375255584717,0.0,1500.0,0.0,15.222432999999999,0.0,0.0,0.0,1584.0,1500.0,-1.5104971531900584e-05,0.0,0.008028514559173916,0.0,0.0,1.0,0.4939113259315491,-0.00014599904550976396,0.0,15.261972,1940.0,0.0,1559.0,5.0,1501.0,,,,,,,,,,,,,,,,
10.400043,-9.466440200805664,0.0,0.0,0.0,0.0,4.159307220094752e-06,0.049892447888851166,1483.0,0.0,0.0,1019.0,0.0,-0.05305800926062762,0.0,5.0,-2.836791515350342,0.0,1500.0,0.0,15.342407999999999,0.0,0.0,0.0,1583.0,1500.0,-1.5948143669277535e-05,0.0,0.008028514559173916,0.0,0.0,1.0,0.5284320116043091,-4.24324752924397e-05,0.0,15.361965999999999,1941.0,0.0,1559.0,5.0,1500.0,,,,,,,,,,,,,,,,
10.500051,-9.437737464904785,0.0,0.0,0.0,0.0,-3.063025568261995e-05,0.05818348377943039,1482.0,0.0,0.0,1020.0,0.0,-0.05305800926062762,0.0,5.0,-2.8293890953063965,0.0,1500.0,0.0,15.422502,0.0,0.0,0.0,1584.0,1500.0,-4.255004412616146e-06,0.0,0.008028514559173916,0.0,0.0,1.0,0.4115927815437317,-8.594082930430844e-06,0.0,15.461974,1940.0,0.0,1559.0,5.0,1500.0,,,,,,,,,,,,,,,,
10.600038999999999,-9.40945053100586,0.0,0.0,0.0,0.0,-4.877064914409129e-05,0.06230427324771881,1482.0,0.0,0.0,1020.0,0.0,-0.05305800926062762,0.0,5.0,-2.8208045959472656,0.0,1500.0,0.0,15.542793999999999,0.0,0.0,0.0,1584.0,1500.0,1.4799537603002258e-05,0.0,0.008028514559173916,0.0,0.0,1.0,0.4939113259315491,-1.3521536432615797e-05,0.0,15.561962,1940.0,0.0,1559.0,5.0,1500.0,,,,,,,,,,,,,,,,
10.700005999999998,-9.29464054107666,0.0,0.0,0.0,0.0,-5.870007150629321e-05,0.05424811691045761,1482.0,0.0,0.0,1020.0,0.0,-0.05305800926062762,0.0,5.0,-2.8375298976898193,0.0,1500.0,0.0,15.622824999999999,0.0,0.0,0.0,1584.0,1500.0,7.743892849934742e-06,0.0,0.008028514559173916,0.0,0.0,1.0,0.41690364480018616,5.641248618743649e-05,0.0,15.661928999999999,1940.0,0.0,1559.0,5.0,1500.0,,,,,,,,,,,,,,,,
10.800038,-9.563116073608398,0.0,0.0,0.0,0.0,2.662177277670931e-05,0.0767924040555954,1482.0,0.0,0.0,1019.0,0.0,-0.05305800926062762,0.0,5.0,-2.661626100540161,0.0,1500.0,0.0,15.742405,0.0,0.0,0.0,1584.0,1500.0,2.5872017355910397e-07,0.0,0.008028514559173916,0.0,0.0,1.0,0.5523309707641602,0.0024468936842133894,0.0,15.761961,1910.0,0.0,1560.0,5.0,1500.0,,,,,,,,,,,,,,,,
10.900089999999999,-8.905635833740234,0.0,0.0,0.0,0.0,9.406564062420103e-05,-0.005439416039735079,1483.0,0.0,0.0,1020.0,0.0,-0.05305800926062762,0.0,5.0,-2.7630720138549805,0.0,1500.0,0.0,15.822427999999999,0.0,0.0,0.0,1584.0,1500.0,3.333079026596313e-06,0.0,0.008028514559173916,0.0,0.0,1.0,0.3770720958709717,0.0015888952215779401,0.0,15.862013,1903.0,0.0,1559.0,5.0,1500.0,,,,,,,,,,,,,,,,
11.000022999999999,-9.63003921508789,0.0,0.0,0.0,0.0,0.00021958244325204944,-0.02801167219877243,1482.0,0.0,0.0,1020.0,0.0,-0.05305800926062762,0.0,5.0,-2.146103858947754,0.0,1501.0,0.0,15.942385999999999,0.0,0.0,0.0,1584.0,1500.0,-5.523872605752048e-05,0.0,0.008028514559173916,0.0,0.0,1.0,0.5363982915878296,0.007542710949647102,0.0,15.961946,1868.0,0.0,1559.0,5.0,1500.0,,,,,,,,,,,,,,,,
11.100089,-10.587157249450684,0.0,0.0,0.0,0.0,0.00013741036724890373,0.013989228755235672,1483.0,0.0,0.0,1020.0,0.0,-0.05305800926062762,0.0,5.0,-1.4651577472686768,0.0,1500.0,0.0,16.022742,0.0,0.0,0.0,1584.0,1500.0,-2.295342035605895e-05,0.0,0.008028514559173916,0.0,0.0,1.0,0.5018776059150696,0.004156700320395805,0.0,16.062012,1832.0,0.0,1559.0,5.0,1500.0,,,,,,,,,,,,,,,,
11.200064000000001,-8.81869125366211,0.0,0.0,0.0,0.0,0.0003669774214476955,-0.10187681764364243,1483.0,0.0,0.0,1020.0,0.0,-0.05305800926062762,0.0,5.0,-1.920253038406372,0.0,1500.0,0.0,16.142328,0.0,0.0,0.0,1584.0,1500.0,-8.834085206854083e-05,0.0,0.008028514559173916,0.0,0.0,1.0,0.4726678133010864,0.002396844200848339,0.0,16.161987,1778.0,0.0,1559.0,5.0,1500.0,,,,,,,,,,,,,,,,
11.299989,-10.410120010375977,0.0,0.0,0.0,0.0,0.0003730961250781663,-0.03418177366256714,1482.0,0.0,0.0,1019.0,0.0,-0.05305800926062762,0.0,5.0,-1.2640526294708252,0.0,1500.0,0.0,16.222424,0.0,0.0,0.0,1585.0,1500.0,-7.397568735256364e-05,0.0,0.008028514559173916,0.0,0.0,1.0,0.46470150351524353,0.006954892000120467,0.0,16.261912,1761.0,0.0,1560.0,5.0,1500.0,,,,,,,,,,,,,,,,
11.400039,-9.383831024169922,0.0,0.0,0.0,0.0,0.00029225631231516387,0.10495855659246445,1482.0,0.0,0.0,1019.0,0.0,-0.05305800926062762,0.0,5.0,-1.4317004680633545,0.0,1500.0,0.0,16.342397,0.0,0.0,0.0,1586.0,1500.0,-6.309419384071333e-05,0.0,0.008028514559173916,0.0,0.0,1.0,0.44876888394355774,0.005281700187886088,0.0,16.361962,1721.0,0.0,1560.0,5.0,1500.0,,,,,,,,,,,,,,,,
11.500063,-9.624715805053711,0.0,0.0,0.0,0.0,8.132598920467889e-05,0.006253623403608799,1483.0,0.0,0.0,1019.0,0.0,-0.05305800926062762,0.0,5.0,-1.1363499164581299,0.0,1500.0,0.0,16.422427,0.0,0.0,0.0,1586.0,1501.0,1.8924927981753002e-05,0.0,0.008028514559173916,0.0,0.0,1.0,0.6293386220932007,0.001496215785234394,0.0,16.461986,1695.0,0.0,1560.0,5.0,1500.0,,,,,,,,,,,,,,,,
11.600104000000002,-10.295613288879395,0.0,0.0,0.0,0.0,-0.0001350175209105824,-0.06473615020513535,1483.0,0.0,0.0,1019.0,0.0,-0.05305800926062762,0.0,5.0,-0.8047444820404053,0.0,1500.0,0.0,16.542939,0.0,0.0,0.0,1587.0,1500.0,3.589628887530963e-06,0.0,0.008028514559173916,0.0,0.0,1.0,0.6134060025215149,0.0011204255502214493,0.0,16.562027,1662.0,0.0,1561.0,5.0,1500.0,,,,,,,,,,,,,,,,
11.700047000000001,-10.451170921325684,0.0,0.0,0.0,0.0,-7.331760381375864e-06,-0.08362244069576263,1484.0,0.0,0.0,1019.0,0.0,-0.05305800926062762,0.0,5.0,-0.17055265605449677,0.0,1500.0,0.0,16.62274,0.0,0.0,0.0,1587.0,1500.0,-8.163723315336564e-05,0.0,0.008028514559173916,0.0,0.0,1.0,0.5576418042182922,0.006820966726357156,0.0,16.66197,1632.0,0.0,1560.0,5.0,1500.0,,,,,,,,,,,,,,,,
11.800017,-9.83088207244873,0.0,0.0,0.0,0.0,-0.00015471151914942083,0.07283231616020203,1484.0,0.0,0.0,1019.0,0.0,-0.05305800926062762,0.0,5.0,-0.0481061190366745,0.0,1500.0,0.0,16.742376999999998,0.0,0.0,0.0,1591.0,1500.0,-3.648877730086249e-05,0.0,0.008028514559173916,0.0,0.0,1.0,0.7196235060691833,0.0037493399231207872,0.0,16.76194,1582.0,0.0,1561.0,5.0,1500.0,,,,,,,,,,,,,,,,
11.900034999999999,-9.042913436889648,0.0,0.0,0.0,0.0,-0.00010912114012713906,0.0017906120046973228,1484.0,0.0,0.0,1020.0,0.0,-0.05305800926062762,0.0,5.0,-0.1001998782157898,0.0,1500.0,0.0,16.822423999999998,0.0,0.0,0.0,1592.0,1500.0,-3.3964252080761805e-05,0.0,0.008028514559173916,0.0,0.0,1.0,0.756799578666687,0.0034629138269908627,0.0,16.861957999999998,1566.0,0.0,1561.0,5.0,1500.0,,,,,,,,,,,,,,,,
12.000001000000001,-8.847803115844727,0.0,0.0,0.0,0.0,0.00023768886653662181,0.02729335054755211,1484.0,0.0,0.0,1020.0,0.0,-0.05305800926062762,0.0,5.0,-0.042922988533973694,0.0,1500.0,0.0,16.942387999999998,0.0,0.0,0.0,1593.0,1500.0,-3.229797619749252e-05,0.0,0.008028514559173916,0.0,0.0,1.0,0.5363982915878296,0.0058906236487543,0.0,16.961924,1548.0,0.0,1562.0,5.0,1500.0,,,,,,,,,,,,,,,,
12.100521,-9.309258460998535,0.0,0.0,0.0,0.0,0.0004210531479505052,-0.0230875127017498,1485.0,0.0,0.0,1020.0,0.0,-0.05305800926062762,0.0,5.0,0.20680004358291626,0.0,1500.0,0.0,17.022835,0.0,0.0,0.0,1594.0,1500.0,-2.078489498065376e-06,0.0,0.008028514559173916,0.0,0.0,1.0,0.5762298703193665,0.0035206752943211595,0.0,17.062444,1535.0,0.0,1561.0,5.0,1500.0,,,,,,,,,,,,,,,,
12.200088000000001,-9.705093383789062,0.0,0.0,0.0,0.0,0.0004534038907903846,-0.02274405024945736,1485.0,0.0,0.0,1019.0,0.0,-0.05305800926062762,0.0,5.0,0.37140998244285583,0.0,1500.0,0.0,17.142395,0.0,0.0,0.0,1595.0,1500.0,-7.509423146822531e-06,0.0,0.008028514559173916,0.0,0.0,1.0,0.44345802068710327,0.003020383318644311,0.0,17.162011,1514.0,0.0,1562.0,5.0,1500.0,,,,,,,,,,,,,,,,
12.300042999999999,-10.147249221801758,0.0,0.0,0.0,0.0,0.00025089805776833005,-0.07559418678283691,1485.0,0.0,0.0,1020.0,0.0,-0.05305800926062762,0.0,5.0,0.624292254447937,0.0,1500.0,0.0,17.222417,0.0,0.0,0.0,1597.0,1500.0,-9.639735120962364e-06,0.0,0.008028514559173916,0.0,0.0,1.0,0.5868515968322754,-5.620905930119173e-05,0.0,17.261965999999997,1494.0,0.0,1562.0,5.0,1500.0,,,,,,,,,,,,,,,,
12.400075000000001,-10.080615997314453,0.0,0.0,0.0,0.0,-5.224039824449714e-06,-0.10395505279302597,1485.0,0.0,0.0,1020.0,0.0,-0.05305800926062762,0.0,5.0,0.6345477104187012,0.0,1500.0,0.0,17.342395,0.0,0.0,0.0,1597.0,1500.0,-9.930975696745803e-06,0.0,0.008028514559173916,0.0,0.0,1.0,0.539053738117218,0.0006869077225590656,0.0,17.361998,1488.0,0.0,1563.0,5.0,1500.0,,,,,,,,,,,,,,,,
12.500036000000001,-10.238903045654297,0.0,0.0,0.0,0.0,-0.00025615648429496525,-0.0693221241235733,1486.0,0.0,0.0,1019.0,0.0,-0.05305800926062762,0.0,5.0,0.8328824043273926,0.0,1500.0,0.0,17.42242,0.0,0.0,0.0,1598.0,1500.0,-4.2925844414672544e-05,0.0,0.008028514559173916,0.0,0.0,1.0,0.5762298703193665,0.0005125592264666071,0.0,17.461959,1480.0,0.0,1563.0,5.0,1500.0,,,,,,,,,,,,,,,,
12.600012,-9.914338111877441,0.0,0.0,0.0,0.0,-0.00020640197397863078,-0.10816824436187744,1486.0,0.0,0.0,1019.0,0.0,-0.05305800926062762,0.0,5.0,0.9439407587051392,0.0,1500.0,0.0,17.542809,0.0,0.0,0.0,1599.0,1500.0,-5.407289819452316e-05,0.0,0.008028514559173916,0.0,0.0,1.0,0.46735695004463196,0.0016863085307888322,0.0,17.561935,1470.0,0.0,1565.0,5.0,1500.0,,,,,,,,,,,,,,,,
12.700074,-9.414669036865234,0.0,0.0,0.0,0.0,-0.00014064393635273458,0.012952067889273167,1488.0,0.0,0.0,1019.0,0.0,-0.05305800926062762,0.0,5.0,0.8867405652999878,0.0,1500.0,0.0,17.622778999999998,0.0,0.0,0.0,1599.0,1500.0,-2.8064352231013326e-05,0.0,0.008028514559173916,0.0,0.0,1.0,0.5841962099075317,0.0014389225817266255,0.0,17.661997,1463.0,0.0,1564.0,5.0,1500.0,,,,,,,,,,,,,,,,
12.800078,-9.340755462646484,0.0,0.0,0.0,0.0,-1.6266066245362274e-05,-0.05077754333615303,1488.0,0.0,0.0,1019.0,0.0,-0.05305800926062762,0.0,5.0,0.9064820408821106,0.0,1500.0,0.0,17.742421999999998,0.0,0.0,0.0,1599.0,1500.0,-8.35939124981841e-06,0.0,0.008028514559173916,0.0,0.0,1.0,0.5815407633781433,0.0007460569464886457,0.0,17.762000999999998,1454.0,0.0,1566.0,5.0,1500.0,,,,,,,,,,,,,,,,
12.900051000000001,-9.432340621948242,0.0,0.0,0.0,0.0,0.00014121182489646076,-0.04590095579624176,1489.0,0.0,0.0,1020.0,0.0,-0.05305800926062762,0.0,5.0,1.0122768878936768,0.0,1500.0,0.0,17.822422,0.0,0.0,0.0,1600.0,1501.0,-4.9327250868469795e-06,0.0,0.008028514559173916,0.0,0.0,1.0,0.4381471276283264,0.001516882461449492,0.0,17.861974,1446.0,0.0,1565.0,5.0,1500.0,,,,,,,,,,,,,,,,
13.000073,-9.742729187011719,0.0,0.0,0.0,0.0,0.00019842461667380566,-0.11050638556480408,1489.0,0.0,0.0,1019.0,0.0,-0.05305800926062762,0.0,5.0,1.1312015056610107,0.0,1500.0,0.0,17.942241,0.0,0.0,0.0,1601.0,1501.0,1.497595942786988e-05,0.0,0.008028514559173916,0.0,0.0,1.0,0.44080257415771484,0.0004072953786937171,0.0,17.961996,1437.0,0.0,1567.0,5.0,1500.0,,,,,,,,,,,,,,,,
13.100062999999999,-9.910713195800781,0.0,0.0,0.0,0.0,0.00018952064705757274,-0.08280587196350098,1490.0,0.0,0.0,1019.0,0.0,-0.05305800926062762,0.0,5.0,1.2020236253738403,0.0,1500.0,0.0,18.022941,0.0,0.0,0.0,1601.0,1500.0,1.1609202807990437e-05,0.0,0.008028514559173916,0.0,0.0,1.0,0.4195590913295746,0.0005439615432610523,0.0,18.061985999999997,1434.0,0.0,1567.0,5.0,1500.0,,,,,,,,,,,,,,,,
13.200040999999999,-9.948145866394043,0.0,0.0,0.0,0.0,6.929421133442346e-05,-0.08561204373836517,1490.0,0.0,0.0,1020.0,0.0,-0.05305800926062762,0.0,5.0,1.2354307174682617,0.0,1500.0,0.0,18.142418,0.0,0.0,0.0,1601.0,1500.0,3.376059356582116e-06,0.0,0.008028514559173916,0.0,0.0,1.0,0.4859450161457062,0.00028235115407477114,0.0,18.161963999999998,1430.0,0.0,1567.0,5.0,1500.0,,,,,,,,,,,,,,,,
13.300037,-9.954378128051758,0.0,0.0,0.0,0.0,-4.031279639613087e-05,-0.07054241001605988,1490.0,0.0,0.0,1020.0,0.0,-0.05305800926062762,0.0,5.0,1.2218140363693237,0.0,1500.0,0.0,18.22241,0.0,0.0,0.0,1602.0,1500.0,-1.6230263357202876e-05,0.0,0.008028514559173916,0.0,0.0,1.0,0.45673519372940063,0.00024996478105233894,0.0,18.26196,1428.0,0.0,1567.0,5.0,1500.0,,,,,,,,,,,,,,,,
13.40006,-9.987876892089844,0.0,0.0,0.0,0.0,-0.00014735642217693465,-0.09207285940647125,1490.0,0.0,0.0,1020.0,0.0,-0.05305800926062762,0.0,5.0,1.3047200441360474,0.0,1500.0,0.0,18.342419,0.0,0.0,0.0,1602.0,1500.0,-2.9014476886884034e-05,0.0,0.008028514559173916,0.0,0.0,1.0,0.5151548385620117,0.00025450907599125716,0.0,18.361983,1425.0,0.0,1567.0,5.0,1500.0,,,,,,,,,,,,,,,,
13.500079,-9.652286529541016,0.0,0.0,0.0,0.0,-7.707562701717607e-05,-0.05600818246603012,1490.0,0.0,0.0,1019.0,0.0,-0.05305800926062762,0.0,5.0,1.2244778871536255,0.0,1500.0,0.0,18.422416,0.0,0.0,0.0,1602.0,1500.0,-1.1810365218958333e-05,0.0,0.008028514559173916,0.0,0.0,1.0,0.5788853168487549,0.0005407708539115893,0.0,18.462002,1423.0,0.0,1568.0,5.0,1500.0,,,,,,,,,,,,,,,,
13.600004000000002,-9.664117813110352,0.0,0.0,0.0,0.0,-7.891136976894447e-05,-0.08356060087680817,1491.0,0.0,0.0,1019.0,0.0,-0.05305800926062762,0.0,5.0,1.2932419776916504,0.0,1500.0,0.0,18.542745999999998,0.0,0.0,0.0,1602.0,1500.0,-2.480799817809791e-05,0.0,0.008028514559173916,0.0,0.0,1.0,0.608095109462738,0.00018185588283699635,0.0,18.561927,1421.0,0.0,1568.0,5.0,1500.0,,,,,,,,,,,,,,,,
13.700029,-9.528934478759766,0.0,0.0,0.0,0.0,1.592331876220464e-05,-0.05637304484844208,1491.0,0.0,0.0,1019.0,0.0,-0.05305800926062762,0.0,5.0,1.2768213748931885,0.0,1500.0,0.0,18.622922,0.0,0.0,0.0,1602.0,1500.0,-1.7555931275005458e-06,0.0,0.008028514559173916,0.0,0.0,1.0,0.5470200777053833,-8.36419652934267e-06,0.0,18.661952,1420.0,0.0,1568.0,5.0,1500.0,,,,,,,,,,,,,,,,
13.800034,-9.470037460327148,0.0,0.0,0.0,0.0,0.00010763403513562802,-0.06225941330194473,1491.0,0.0,0.0,1019.0,0.0,-0.05305800926062762,0.0,5.0,1.2242746353149414,0.0,1500.0,0.0,18.742397999999998,0.0,0.0,0.0,1602.0,1500.0,1.2567748386054927e-05,0.0,0.008028514559173916,0.0,0.0,1.0,0.5284320116043091,0.0002637124724290254,0.0,18.761957,1418.0,0.0,1568.0,5.0,1500.0,,,,,,,,,,,,,,,,
13.900029,-9.666400909423828,0.0,0.0,0.0,0.0,7.943642732223878e-05,-0.11307698488235474,1490.0,0.0,0.0,1020.0,0.0,-0.05305800926062762,0.0,5.0,1.3241944313049316,0.0,1500.0,0.0,18.822438,0.0,0.0,0.0,1603.0,1500.0,2.371141104052457e-05,0.0,0.008028514559173916,0.0,0.0,1.0,0.4965667724609375,-2.1384981183001984e-05,0.0,18.861952,1417.0,0.0,1568.0,5.0,1500.0,,,,,,,,,,,,,,,,
14.000069,-9.774402618408203,0.0,0.0,0.0,0.0,9.068860802073006e-05,-0.07271888852119446,1491.0,0.0,0.0,1020.0,0.0,-0.05305800926062762,0.0,5.0,1.3151130676269531,0.0,1500.0,0.0,18.942403,0.0,0.0,0.0,1602.0,1500.0,-3.081054306532897e-06,0.0,0.008028514559173916,0.0,0.0,1.0,0.6240277290344238,1.8549868295519552e-05,0.0,18.961992,1416.0,0.0,1568.0,5.0,1500.0,,,,,,,,,,,,,,,,
14.100096,-9.761030197143555,0.0,0.0,0.0,0.0,1.9973344477905134e-05,-0.10915879905223846,1491.0,0.0,0.0,1019.0,0.0,-0.05305800926062762,0.0,5.0,1.332029938697815,0.0,1500.0,0.0,19.022814,0.0,0.0,0.0,1603.0,1500.0,-5.750017289077895e-06,0.0,0.008028514559173916,0.0,0.0,1.0,0.4461134672164917,2.727295621857377e-05,0.0,19.062019,1414.0,0.0,1568.0,5.0,1500.0,,,,,,,,,,,,,,,,
14.199987,-9.867972373962402,0.0,0.0,0.0,0.0,1.8326548771142755e-06,-0.09442418813705444,1491.0,0.0,0.0,1020.0,0.0,-0.05305800926062762,0.0,5.0,1.4112346172332764,0.0,1500.0,0.0,19.142398,0.0,0.0,0.0,1603.0,1501.0,-7.297108017330889e-06,0.0,0.008028514559173916,0.0,0.0,1.0,0.539053738117218,0.00044216477882673476,0.0,19.16191,1410.0,0.0,1568.0,5.0,1500.0,,,,,,,,,,,,,,,,
14.300058,-9.875570297241211,0.0,0.0,0.0,0.0,-1.3926852109291424e-05,-0.07724522054195404,1490.0,0.0,0.0,1019.0,0.0,-0.05305800926062762,0.0,5.0,1.4662435054779053,0.0,1500.0,0.0,19.222399,0.0,0.0,0.0,1604.0,1500.0,-8.144349403573469e-06,0.0,0.008028514559173916,0.0,0.0,1.0,0.5602972507476807,0.00041357604361020814,0.0,19.261981,1407.0,0.0,1569.0,5.0,1500.0,,,,,,,,,,,,,,,,
14.400034999999999,-9.550375938415527,0.0,0.0,0.0,0.0,-2.8612113460165593e-05,-0.07313524931669235,1491.0,0.0,0.0,1020.0,0.0,-0.05305800926062762,0.0,5.0,1.375368595123291,0.0,1500.0,0.0,19.342387,0.0,0.0,0.0,1604.0,1500.0,-2.1829267371844754e-05,0.0,0.008028514559173916,0.0,0.0,1.0,0.49125587940216064,0.0007382414529419689,0.0,19.361957999999998,1403.0,0.0,1568.0,5.0,1500.0,,,,,,,,,,,,,,,,
14.500050000000002,-9.723406791687012,0.0,0.0,0.0,0.0,-1.8355655761343508e-05,-0.08099476993083954,1491.0,0.0,0.0,1020.0,0.0,-0.05305800926062762,0.0,5.0,1.5037050247192383,0.0,1501.0,0.0,19.422442,0.0,0.0,0.0,1604.0,1500.0,-1.8354237543538883e-05,0.0,0.008028514559173916,0.0,0.0,1.0,0.4965667724609375,0.0004998747189313506,0.0,19.461973,1401.0,0.0,1568.0,5.0,1500.0,,,,,,,,,,,,,,,,
14.600076999999999,-9.610394477844238,0.0,0.0,0.0,0.0,-4.059362790341419e-05,-0.061965372413396835,1491.0,0.0,0.0,1019.0,0.0,-0.05305800926062762,0.0,5.0,1.4966440200805664,0.0,1500.0,0.0,19.542787,0.0,0.0,0.0,1604.0,1500.0,-1.2768278897685805e-05,0.0,0.008028514559173916,0.0,0.0,1.0,0.4726678133010864,-2.4911684528796635e-05,0.0,19.561999999999998,1395.0,0.0,1569.0,5.0,1500.0,,,,,,,,,,,,,,,,
14.700057000000001,-9.698217391967773,0.0,0.0,0.0,0.0,2.5910168786340452e-05,-0.11499509960412979,1491.0,0.0,0.0,1019.0,0.0,-0.05305800926062762,0.0,5.0,1.5137882232666016,0.0,1500.0,0.0,19.622851999999998,0.0,0.0,0.0,1605.0,1500.0,-5.759764488738679e-06,0.0,0.008028514559173916,0.0,0.0,1.0,0.5417091846466064,0.0007731304886865394,0.0,19.66198,1395.0,0.0,1569.0,5.0,1501.0,,,,,,,,,,,,,,,,
14.800044,-9.613966941833496,0.0,0.0,0.0,0.0,0.00011172150139500442,-0.0897151306271553,1491.0,0.0,0.0,1019.0,0.0,-0.05305800926062762,0.0,5.0,1.52280855178833,0.0,1500.0,0.0,19.74242,0.0,0.0,0.0,1605.0,1500.0,9.40518668441186e-06,0.0,0.008028514559173916,0.0,0.0,1.0,0.4354917109012604,0.0013320477685648464,0.0,19.761967,1391.0,0.0,1569.0,5.0,1500.0,,,,,,,,,,,,,,,,
14.900023000000001,-9.669069290161133,0.0,0.0,0.0,0.0,8.105577198079292e-05,-0.07884986698627472,1492.0,0.0,0.0,1019.0,0.0,-0.05305800926062762,0.0,5.0,1.5557587146759033,0.0,1500.0,0.0,19.822418,0.0,0.0,0.0,1605.0,1500.0,6.2430613184042415e-06,0.0,0.008028514559173916,0.0,0.0,1.0,0.5310874581336975,0.00038403130768352575,0.0,19.861946,1384.0,0.0,1569.0,5.0,1500.0,,,,,,,,,,,,,,,,
15.000027,-9.508188247680664,0.0,0.0,0.0,0.0,9.085111383736866e-05,-0.06765775382518768,1492.0,0.0,0.0,1020.0,0.0,-0.05305800926062762,0.0,5.0,1.5692757368087769,0.0,1500.0,0.0,19.942411,0.0,0.0,0.0,1606.0,1500.0,-8.544991869718103e-06,0.0,0.008028514559173916,0.0,0.0,1.0,0.5124993920326233,0.0007905806956846885,0.0,19.961949999999998,1377.0,0.0,1569.0,5.0,1500.0,,,,,,,,,,,,,,,,
15.100068,-9.917314529418945,0.0,0.0,0.0,0.0,2.017931318431262e-05,-0.12004023045301437,1492.0,0.0,0.0,1020.0,0.0,-0.05305800926062762,0.0,5.0,1.8390510082244873,0.0,1500.0,0.0,20.022928,0.0,0.0,0.0,1607.0,1500.0,-1.8909620169518002e-05,0.0,0.008028514559173916,0.0,0.0,1.0,0.5098439455032349,0.0016825248394686156,0.0,20.061991,1372.0,0.0,1569.0,5.0,1500.0,,,,,,,,,,,,,,,,
15.200032,-9.915900230407715,0.0,0.0,0.0,0.0,3.577688479053911e-05,-0.09664779901504517,1492.0,0.0,0.0,1019.0,0.0,-0.05305800926062762,0.0,5.0,1.9457581043243408,0.0,1500.0,0.0,20.142405,0.0,0.0,0.0,1608.0,1500.0,-3.348133672730372e-05,0.0,0.008028514559173916,0.0,0.0,1.0,0.3717612028121948,0.002031280088302378,0.0,20.161955,1360.0,0.0,1570.0,5.0,1500.0,,,,,,,,,,,,,,,,
15.300039000000002,-9.305673599243164,0.0,0.0,0.0,0.0,3.7405762798576465e-05,-0.06690912693738937,1492.0,0.0,0.0,1020.0,0.0,-0.05305800926062762,0.0,5.0,1.746548056602478,0.0,1501.0,0.0,20.222428,0.0,0.0,0.0,1608.0,1500.0,-2.3274094030864978e-05,0.0,0.008028514559173916,0.0,0.0,1.0,0.4115927815437317,0.0014550154608215398,0.0,20.261962,1356.0,0.0,1570.0,5.0,1500.0,,,,,,,,,,,,,,,,
15.400044999999999,-9.469878196716309,0.0,0.0,0.0,0.0,-3.0436843689726173e-05,-0.10278674215078354,1493.0,0.0,0.0,1019.0,0.0,-0.05305800926062762,0.0,5.0,1.86333167552948,0.0,1500.0,0.0,20.342396,0.0,0.0,0.0,1608.0,1500.0,-1.962430238334532e-05,0.0,0.008028514559173916,0.0,0.0,1.0,0.40628188848495483,0.0003233697515528898,0.0,20.361967999999997,1351.0,0.0,1570.0,5.0,1500.0,,,,,,,,,,,,,,,,
15.500022999999999,-9.436504364013672,0.0,0.0,0.0,0.0,0.00016579190450147018,-0.08324423432350159,1493.0,0.0,0.0,1020.0,0.0,-0.05305800926062762,0.0,5.0,1.9586182832717896,0.0,1500.0,0.0,20.42241,0.0,0.0,0.0,1609.0,1500.0,-2.6458502991740432e-05,0.0,0.008028514559173916,0.0,0.0,1.0,0.35848402976989746,0.0025655499943440293,0.0,20.461945999999998,1336.0,0.0,1570.0,5.0,1500.0,,,,,,,,,,,,,,,,
15.60004,-9.271994590759277,0.0,0.0,0.0,0.0,0.00019176139867958623,-0.1466023325920105,1493.0,0.0,0.0,1019.0,0.0,-0.05305800926062762,0.0,5.0,1.9949243068695068,0.0,1500.0,0.0,20.542925999999998,0.0,0.0,0.0,1610.0,1500.0,7.936810092061435e-06,0.0,0.008028514559173916,0.0,0.0,1.0,0.4301808178424835,0.0015238437408750393,0.0,20.561963,1322.0,0.0,1570.0,5.0,1500.0,,,,,,,,,,,,,,,,
15.70007,-9.391304016113281,0.0,0.0,0.0,0.0,0.0001286405472205396,-0.14117646217346191,1493.0,0.0,0.0,1020.0,0.0,-0.05305800926062762,0.0,5.0,2.1798715591430664,0.0,1500.0,0.0,20.622811,0.0,0.0,0.0,1610.0,1500.0,-2.5797046614030453e-06,0.0,0.008028514559173916,0.0,0.0,1.0,0.33192965388298035,0.001409538344167884,0.0,20.661993,1313.0,0.0,1570.0,5.0,1500.0,,,,,,,,,,,,,,,,
15.800065,-9.648675918579102,0.0,0.0,0.0,0.0,2.087478850285756e-05,-0.0960129126906395,1492.0,0.0,0.0,1019.0,0.0,-0.05305800926062762,0.0,5.0,2.297628402709961,0.0,1500.0,0.0,20.742376,0.0,0.0,0.0,1611.0,1500.0,-1.803870846397828e-05,0.0,0.008028514559173916,0.0,0.0,1.0,0.27351003885269165,0.00043317556985041653,0.0,20.761988,1300.0,0.0,1571.0,5.0,1500.0,,,,,,,,,,,,,,,,
15.900032,-9.611943244934082,0.0,0.0,0.0,0.0,-4.4089225953548424e-05,-0.11696751415729523,1492.0,0.0,0.0,1019.0,0.0,-0.05305800926062762,0.0,5.0,2.3755855560302734,0.0,1500.0,0.0,20.822392999999998,0.0,0.0,0.0,1612.0,1500.0,-3.7735634570805886e-05,0.0,0.008028514559173916,0.0,0.0,1.0,0.3292742073535919,0.0008523833279171528,0.0,20.861955,1291.0,0.0,1571.0,5.0,1500.0,,,,,,,,,,,,,,,,
16.000054,-9.594120025634766,0.0,0.0,0.0,0.0,-9.28364643447101e-05,-0.10617731511592865,1493.0,0.0,0.0,1020.0,0.0,-0.05305800926062762,0.0,5.0,2.560744047164917,0.0,1500.0,0.0,20.942396,0.0,0.0,0.0,1612.0,1500.0,-7.857490673803569e-05,0.0,0.008028514559173916,0.0,0.0,1.0,0.3292742073535919,0.0026588859883215506,0.0,20.961976999999997,1275.0,0.0,1570.0,5.0,1500.0,,,,,,,,,,,,,,,,
16.100072,-9.826425552368164,0.0,0.0,0.0,0.0,-0.00013613538537888645,-0.09240931272506714,1493.0,0.0,0.0,1019.0,0.0,-0.05305800926062762,0.0,5.0,2.856368064880371,0.0,1500.0,0.0,21.022917,0.0,0.0,0.0,1612.0,1500.0,-7.650634057395192e-05,0.0,0.008028514559173916,0.0,0.0,1.0,0.34786227345466614,0.002300218006582674,0.0,21.061995,1258.0,0.0,1571.0,5.0,1500.0,,,,,,,,,,,,,,,,
16.199988,-9.720324516296387,0.0,0.0,0.0,0.0,-4.58219264449391e-05,-0.11057697236537933,1493.0,0.0,0.0,1019.0,0.0,-0.05305800926062762,0.0,5.0,3.039215564727783,0.0,1500.0,0.0,21.14237,0.0,0.0,0.0,1613.0,1500.0,-9.342687369953435e-05,0.0,0.008028514559173916,0.0,0.0,1.0,0.2177458554506302,0.0038633258185194305,0.0,21.161911,1231.0,0.0,1571.0,5.0,1500.0,,,,,,,,,,,,,,,,
16.300069,-8.928476333618164,0.0,0.0,0.0,0.0,9.111887660981053e-05,-0.11971668899059296,1493.0,0.0,0.0,1019.0,0.0,-0.05305800926062762,0.0,5.0,2.825223445892334,0.0,1500.0,0.0,21.222385,0.0,0.0,0.0,1614.0,1500.0,-1.7535434167250394e-05,0.0,0.008028514559173916,0.0,0.0,1.0,0.23102304339408875,0.002326041306480735,0.0,21.261992,1230.0,0.0,1571.0,5.0,1500.0,,,,,,,,,,,,,,,,
16.400036,-8.678058624267578,0.0,0.0,0.0,0.0,0.0003131616717422168,-0.1225268691778183,1493.0,0.0,0.0,1020.0,0.0,-0.05305800926062762,0.0,5.0,2.807779312133789,0.0,1500.0,0.0,21.342374,0.0,0.0,0.0,1613.0,1500.0,5.280098438881099e-05,0.0,0.008028514559173916,0.0,0.0,1.0,0.3266187906265259,0.0019981600130992575,0.0,21.361959,1219.0,0.0,1571.0,5.0,1500.0,,,,,,,,,,,,,,,,
16.499994,-9.050834655761719,0.0,0.0,0.0,0.0,0.0004297614441463135,-0.18057656288146973,1493.0,0.0,0.0,1019.0,0.0,-0.05305800926062762,0.0,5.0,3.040806531906128,0.0,1500.0,0.0,21.422425999999998,0.0,0.0,0.0,1614.0,1500.0,9.243135794659304e-05,0.0,0.008028514559173916,0.0,0.0,1.0,0.30537527799606323,0.0021799966992001245,0.0,21.461917,1208.0,0.0,1571.0,5.0,1500.0,,,,,,,,,,,,,,,,
16.600067,-9.516374588012695,0.0,0.0,0.0,0.0,0.00034864731798880315,-0.20141956210136414,1493.0,0.0,0.0,1020.0,0.0,-0.05305800926062762,0.0,5.0,3.348839044570923,0.0,1500.0,0.0,21.542848,0.0,0.0,0.0,1615.0,1500.0,7.49193914235309e-05,0.0,0.008028514559173916,0.0,0.0,1.0,0.28147634863853455,0.002469945892176412,0.0,21.561989999999998,1188.0,0.0,1570.0,5.0,1500.0,,,,,,,,,,,,,,,,
16.700098,-9.2225980758667,0.0,0.0,0.0,0.0,0.00012363171077287274,-0.10014885663986206,1493.0,0.0,0.0,1019.0,0.0,-0.05305800926062762,0.0,5.0,3.289691209793091,0.0,1500.0,0.0,21.622954999999997,0.0,0.0,0.0,1614.0,1500.0,2.4218442192153246e-05,0.0,0.008028514559173916,0.0,0.0,1.0,0.3372405171394348,0.0012352501853188725,0.0,21.662021,1178.0,0.0,1571.0,5.0,1500.0,,,,,,,,,,,,,,,,
16.800026,-9.588445663452148,0.0,0.0,0.0,0.0,-4.460601801969487e-05,-0.2212272435426712,1493.0,0.0,0.0,1020.0,0.0,-0.05305800926062762,0.0,5.0,3.6357991695404053,0.0,1500.0,0.0,21.742414999999998,0.0,0.0,0.0,1614.0,1500.0,-9.234554967392137e-05,0.0,0.008028514559173916,0.0,0.0,1.0,0.286787211894989,0.002820561712732677,0.0,21.761948999999998,1157.0,0.0,1571.0,5.0,1500.0,,,,,,,,,,,,,,,,
16.900086,-9.12471866607666,0.0,0.0,0.0,0.0,-0.00011308274666776252,-0.1279541403055191,1492.0,0.0,0.0,1020.0,0.0,-0.05305800926062762,0.0,5.0,3.5446724891662598,0.0,1500.0,0.0,21.822407,0.0,0.0,0.0,1615.0,1500.0,-9.658251803367621e-05,0.0,0.008028514559173916,0.0,0.0,1.0,0.22040128707885742,0.00228747566501935,0.0,21.862009,1150.0,0.0,1571.0,5.0,1500.0,,,,,,,,,,,,,,,,
17.00002,-9.1408052444458,0.0,0.0,0.0,0.0,-0.00012843934722070439,-0.15921376645565033,1493.0,0.0,0.0,1020.0,0.0,-0.05305800926062762,0.0,5.0,3.659646987915039,0.0,1500.0,0.0,21.942805,0.0,0.0,0.0,1614.0,1500.0,-0.00010446307079826716,0.0,0.008028514559173916,0.0,0.0,1.0,0.23102304339408875,0.0022401793284608992,0.0,21.961942999999998,1139.0,0.0,1571.0,5.0,1500.0,,,,,,,,,,,,,,,,
17.100006,-8.817306518554688,0.0,0.0,0.0,0.0,-4.3306853301095014e-05,-0.13616876304149628,1493.0,0.0,0.0,1019.0,0.0,-0.05305800926062762,0.0,5.0,3.62721586227417,0.0,1500.0,0.0,22.022847,0.0,0.0,0.0,1615.0,1500.0,-4.480757968538857e-05,0.0,0.008028514559173916,0.0,0.0,1.0,0.35848402976989746,0.0011725509468502708,0.0,22.061929,1130.0,0.0,1571.0,5.0,1500.0,,,,,,,,,,,,,,,,
17.200076,-8.743488311767578,0.0,0.0,0.0,0.0,9.580911388178098e-05,-0.1352195143699646,1493.0,0.0,0.0,1019.0,0.0,-0.05305800926062762,0.0,5.0,3.645948886871338,0.0,1500.0,0.0,22.142407,0.0,0.0,0.0,1615.0,1500.0,-2.4209927805748845e-06,0.0,0.008028514559173916,0.0,0.0,1.0,0.36379489302635193,0.0014114168610188257,0.0,22.161998999999998,1122.0,0.0,1571.0,5.0,1500.0,,,,,,,,,,,,,,,,
17.300067,-8.915131568908691,0.0,0.0,0.0,0.0,0.00018755344486173686,-0.15570971369743347,1493.0,0.0,0.0,1020.0,0.0,-0.05305800926062762,0.0,5.0,3.781745433807373,0.0,1500.0,0.0,22.22242,0.0,0.0,0.0,1615.0,1501.0,4.877853264707401e-05,0.0,0.008028514559173916,0.0,0.0,1.0,0.16463710367679596,0.00126504560038576,0.0,22.261989999999997,1114.0,0.0,1570.0,5.0,1500.0,,,,,,,,,,,,,,,,
17.400049,-8.856568336486816,0.0,0.0,0.0,0.0,0.0002264142869368724,-0.1625022292137146,1493.0,0.0,0.0,1019.0,0.0,-0.05305800926062762,0.0,5.0,3.773350238800049,0.0,1500.0,0.0,22.342423,0.0,0.0,0.0,1615.0,1500.0,8.113472892046003e-05,0.0,0.008028514559173916,0.0,0.0,1.0,0.29209810495376587,0.00043675451765811703,0.0,22.361971999999998,1109.0,0.0,1571.0,5.0,1501.0,,,,,,,,,,,,,,,,
17.500085,-9.135003089904785,0.0,0.0,0.0,0.0,0.00014898396730405534,-0.18639081716537476,1493.0,0.0,0.0,1019.0,0.0,-0.05305800926062762,0.0,5.0,3.907653570175171,0.0,1500.0,0.0,22.422397,0.0,0.0,0.0,1615.0,1500.0,4.427307411949899e-05,0.0,0.008028514559173916,0.0,0.0,1.0,0.31599703431129456,0.0005883223233830646,0.0,22.462007999999997,1105.0,0.0,1571.0,5.0,1500.0,,,,,,,,,,,,,,,,
17.600032,-9.063904762268066,0.0,0.0,0.0,0.0,9.364417392556416e-05,-0.1755836457014084,1493.0,0.0,0.0,1020.0,0.0,-0.05305800926062762,0.0,5.0,3.917945384979248,0.0,1500.0,0.0,22.542837,0.0,0.0,0.0,1615.0,1500.0,3.8653676747455417e-07,0.0,0.008028514559173916,0.0,0.0,1.0,0.30537527799606323,0.0010262312459521767,0.0,22.561954999999998,1099.0,0.0,1571.0,5.0,1500.0,,,,,,,,,,,,,,,,
17.70007,-9.172724723815918,0.0,0.0,0.0,0.0,7.73488726846692e-06,-0.1557910442352295,1493.0,0.0,0.0,1020.0,0.0,-0.05305800926062762,0.0,5.0,4.151162147521973,0.0,1500.0,0.0,22.622821,0.0,0.0,0.0,1615.0,1500.0,-6.207562087337824e-05,0.0,0.008028514559173916,0.0,0.0,1.0,0.1938469111919403,0.002262837003672589,0.0,22.661993,1082.0,0.0,1570.0,5.0,1500.0,,,,,,,,,,,,,,,,
17.800039,-8.790966033935547,0.0,0.0,0.0,0.0,-5.707270111660976e-05,-0.13026200234889984,1493.0,0.0,0.0,1020.0,0.0,-0.05305800926062762,0.0,5.0,4.019000053405762,0.0,1500.0,0.0,22.742385,0.0,0.0,0.0,1615.0,1500.0,-5.329999793663301e-05,0.0,0.008028514559173916,0.0,0.0,1.0,0.2097795456647873,0.0005343701972033077,0.0,22.761962,1073.0,0.0,1571.0,5.0,1501.0,,,,,,,,,,,,,,,,
17.900052,-8.535809516906738,0.0,0.0,0.0,0.0,-1.6823409587933744e-05,-0.1590738296508789,1493.0,0.0,0.0,1019.0,0.0,-0.05305800926062762,0.0,5.0,4.002469539642334,0.0,1500.0,0.0,22.822394,0.0,0.0,0.0,1615.0,1500.0,-8.7566643311702e-05,0.0,0.008028514559173916,0.0,0.0,1.0,0.1938469111919403,0.003217466862060207,0.0,22.861974999999997,1066.0,0.0,1571.0,5.0,1500.0,,,,,,,,,,,,,,,,
18.000037,-8.856215476989746,0.0,0.0,0.0,0.0,5.621414700517852e-05,-0.18898287415504456,1493.0,0.0,0.0,1020.0,0.0,-0.05305800926062762,0.0,5.0,4.289056301116943,0.0,1500.0,0.0,22.942439,0.0,0.0,0.0,1615.0,1500.0,-7.1034539318133e-05,0.0,0.008028514559173916,0.0,0.0,1.0,0.38238295912742615,0.0034866128398006657,0.0,22.961959999999998,1034.0,0.0,1571.0,5.0,1500.0,,,,,,,,,,,,,,,,
18.100001,-8.555985450744629,0.0,0.0,0.0,0.0,7.032873010882256e-05,-0.13768312335014343,1493.0,0.0,0.0,1019.0,0.0,-0.05305800926062762,0.0,5.0,4.210205078125,0.0,1500.0,0.0,23.022823,0.0,0.0,0.0,1615.0,1501.0,1.3332438016225192e-05,0.0,0.008028514559173916,0.0,0.0,1.0,0.4115927815437317,0.0006655559455528016,0.0,23.061923999999998,1031.0,0.0,1571.0,5.0,1500.0,,,,,,,,,,,,,,,,
18.20053,-8.312973022460938,0.0,0.0,0.0,0.0,0.00021567742725912565,-0.20205646753311157,1493.0,0.0,0.0,1019.0,0.0,-0.05305800926062762,0.0,5.0,4.178577899932861,0.0,1500.0,0.0,23.142422999999997,0.0,0.0,0.0,1615.0,1500.0,3.916087031854792e-05,0.0,0.008028514559173916,0.0,0.0,1.0,0.36379489302635193,0.0021103096537248046,0.0,23.162453,1026.0,0.0,1571.0,5.0,1500.0,,,,,,,,,,,,,,,,
18.30009,-8.76144027709961,0.0,0.0,0.0,0.0,0.00029457246923684095,-0.12564827501773834,1493.0,0.0,0.0,1020.0,0.0,-0.05305800926062762,0.0,5.0,4.574997901916504,0.0,1500.0,0.0,23.222424999999998,0.0,0.0,0.0,1615.0,1500.0,5.85692581843774e-05,0.0,0.008028514559173916,0.0,0.0,1.0,0.46470150351524353,0.0016848513343447195,0.0,23.262013,997.0,0.0,1571.0,5.0,1500.0,,,,,,,,,,,,,,,,
18.40006,-8.499871253967285,0.0,0.0,0.0,0.0,0.0001357584564084406,-0.2692902088165283,1494.0,0.0,0.0,1020.0,0.0,-0.05305800926062762,0.0,5.0,4.565296173095703,0.0,1500.0,0.0,23.342435,0.0,0.0,0.0,1615.0,1500.0,2.599060286690149e-05,0.0,0.008028514559173916,0.0,0.0,1.0,0.41424819827079773,0.0006094912031201295,0.0,23.361983,978.0,0.0,1570.0,5.0,1501.0,,,,,,,,,,,,,,,,
18.500065,-8.814693450927734,0.0,0.0,0.0,0.0,8.796695458944813e-05,-0.16772156953811646,1494.0,0.0,0.0,1019.0,0.0,-0.05305800926062762,0.0,5.0,4.866135597229004,0.0,1500.0,0.0,23.422386,0.0,0.0,0.0,1615.0,1500.0,-5.4923719158440944e-05,0.0,0.008028514559173916,0.0,0.0,1.0,0.3876938223838806,0.00312267549215885,0.0,23.461987999999998,962.0,0.0,1571.0,5.0,1500.0,,,,,,,,,,,,,,,,
18.599934,-8.561544418334961,0.0,0.0,0.0,0.0,3.24828524697599e-05,-0.1263565868139267,1493.0,0.0,0.0,1020.0,0.0,-0.05305800926062762,0.0,5.0,4.869027614593506,0.0,1500.0,0.0,23.542790999999998,0.0,0.0,0.0,1615.0,1500.0,-8.665400186795117e-05,0.0,0.008028514559173916,0.0,0.0,1.0,0.3876938223838806,0.0027393178745054717,0.0,23.561857,936.0,0.0,1571.0,5.0,1500.0,,,,,,,,,,,,,,,,
18.700033,-8.39171028137207,0.0,0.0,0.0,0.0,-7.444896573317456e-05,-0.1537896692752838,1493.0,0.0,0.0,1020.0,0.0,-0.05305800926062762,0.0,5.0,4.838669300079346,0.0,1500.0,0.0,23.622920999999998,0.0,0.0,0.0,1615.0,1500.0,-5.172382561606258e-05,0.0,0.008028514559173916,0.0,0.0,1.0,0.3027198314666748,0.000289576473958981,0.0,23.661956,926.0,0.0,1571.0,5.0,1500.0,,,,,,,,,,,,,,,,
18.800067,-8.471220016479492,0.0,0.0,0.0,0.0,-6.556005198217407e-05,-0.19752612709999084,1493.0,0.0,0.0,1019.0,0.0,-0.05305800926062762,0.0,5.0,4.882357597351074,0.0,1500.0,0.0,23.742383999999998,0.0,0.0,0.0,1615.0,1500.0,-5.4125920847573935e-05,0.0,0.008028514559173916,0.0,0.0,1.0,0.34255141019821167,0.0006577615180264662,0.0,23.761989999999997,921.0,0.0,1571.0,5.0,1500.0,,,,,,,,,,,,,,,,
18.900064,-8.473727226257324,0.0,0.0,0.0,0.0,-2.4263105893845536e-05,-0.20847555994987488,1493.0,0.0,0.0,1020.0,0.0,-0.05305800926062762,0.0,5.0,4.899683952331543,0.0,1500.0,0.0,23.822419,0.0,0.0,0.0,1615.0,1500.0,-2.419367214450832e-05,0.0,0.008028514559173916,0.0,0.0,1.0,0.2363339066505432,0.00016345481159661427,0.0,23.861987,916.0,0.0,1571.0,5.0,1500.0,,,,,,,,,,,,,,,,
19.000072,-8.462732315063477,0.0,0.0,0.0,0.0,3.618633524261933e-05,-0.1952742636203766,1493.0,0.0,0.0,1020.0,0.0,-0.05305800926062762,0.0,5.0,4.8943986892700195,0.0,1500.0,0.0,23.942394999999998,0.0,0.0,0.0,1615.0,1500.0,1.0295285982842636e-05,0.0,0.008028514559173916,0.0,0.0,1.0,0.2761654853820801,-9.734437224415257e-07,0.0,23.961994999999998,915.0,0.0,1571.0,5.0,1500.0,,,,,,,,,,,,,,,,
19.099997000000002,-8.482701301574707,0.0,0.0,0.0,0.0,7.6816950591471e-05,-0.19778791069984436,1493.0,0.0,0.0,1020.0,0.0,-0.05305800926062762,0.0,5.0,4.904294013977051,0.0,1500.0,0.0,24.0228,0.0,0.0,0.0,1615.0,1500.0,2.7884967997035185e-05,0.0,0.008028514559173916,0.0,0.0,1.0,0.23367847502231598,-2.60435523740483e-05,0.0,24.06192,915.0,0.0,1571.0,5.0,1500.0,,,,,,,,,,,,,,,,
19.199985,-8.501960754394531,0.0,0.0,0.0,0.0,9.040553337239187e-05,-0.19273385405540466,1493.0,0.0,0.0,1020.0,0.0,-0.05305800926062762,0.0,5.0,4.940430164337158,0.0,1500.0,0.0,24.142411,0.0,0.0,0.0,1615.0,1500.0,3.341089925361767e-05,0.0,0.008028514559173916,0.0,0.0,1.0,0.21509040892124176,-1.7782315815941385e-05,0.0,24.161908,915.0,0.0,1571.0,5.0,1500.0,,,,,,,,,,,,,,,,
19.300065,-8.532341957092285,0.0,0.0,0.0,0.0,6.537573649517041e-05,-0.18133637309074402,1494.0,0.0,0.0,1019.0,0.0,-0.05305800926062762,0.0,5.0,4.952198028564453,0.0,1500.0,0.0,24.222436,0.0,0.0,0.0,1615.0,1500.0,2.7894271749653193e-05,0.0,0.008028514559173916,0.0,0.0,1.0,0.30803072452545166,-1.4750453653696846e-05,0.0,24.261988,915.0,0.0,1571.0,5.0,1500.0,,,,,,,,,,,,,,,,
19.400025,-8.571910858154297,0.0,0.0,0.0,0.0,1.8469643493517073e-05,-0.19003550708293915,1493.0,0.0,0.0,1019.0,0.0,-0.05305800926062762,0.0,5.0,4.961708068847656,0.0,1500.0,0.0,24.342371999999997,0.0,0.0,0.0,1616.0,1500.0,6.042366228489445e-06,0.0,0.008028514559173916,0.0,0.0,1.0,0.2761654853820801,4.8194901479350376e-05,0.0,24.361947999999998,915.0,0.0,1571.0,5.0,1500.0,,,,,,,,,,,,,,,,
19.500073,-8.539115905761719,0.0,0.0,0.0,0.0,-3.6886126169498107e-05,-0.19765855371952057,1493.0,0.0,0.0,1020.0,0.0,-0.05305800926062762,0.0,5.0,4.953058242797852,0.0,1500.0,0.0,24.422396,0.0,0.0,0.0,1615.0,1500.0,-2.8961415629050612e-05,0.0,0.008028514559173916,0.0,0.0,1.0,0.24961109459400177,9.240673419075604e-06,0.0,24.461996,915.0,0.0,1571.0,5.0,1500.0,,,,,,,,,,,,,,,,
19.600099,-8.52202320098877,0.0,0.0,0.0,0.0,-3.8112665132785014e-05,-0.18567125499248505,1493.0,0.0,0.0,1020.0,0.0,-0.05305800926062762,0.0,5.0,4.953627586364746,0.0,1500.0,0.0,24.542814,0.0,0.0,0.0,1615.0,1500.0,-2.5824665288268617e-05,0.0,0.008028514559173916,0.0,0.0,1.0,0.35848402976989746,-2.913286048470273e-06,0.0,24.562022,915.0,0.0,1571.0,5.0,1500.0,,,,,,,,,,,,,,,,
19.699992,-8.508688926696777,0.0,0.0,0.0,0.0,-5.644951426948727e-05,-0.18937571346759796,1493.0,0.0,0.0,1019.0,0.0,-0.05305800926062762,0.0,5.0,4.921529293060303,0.0,1501.0,0.0,24.622926999999997,0.0,0.0,0.0,1615.0,1500.0,-3.709248295556274e-05,0.0,0.008028514559173916,0.0,0.0,1.0,0.22571216523647308,1.681558196029433e-05,0.0,24.661915,915.0,0.0,1571.0,5.0,1500.0,,,,,,,,,,,,,,,,
19.800042,-8.473287582397461,0.0,0.0,0.0,0.0,-1.8962876483095323e-05,-0.18705300986766815,1493.0,0.0,0.0,1020.0,0.0,-0.05305800926062762,0.0,5.0,4.920360088348389,0.0,1500.0,0.0,24.742386,0.0,0.0,0.0,1615.0,1500.0,-3.31318455981668e-05,0.0,0.008028514559173916,0.0,0.0,1.0,0.23898935317993164,1.3729201717629103e-06,0.0,24.761965,915.0,0.0,1571.0,5.0,1500.0,,,,,,,,,,,,,,,,
19.900057,-8.457356452941895,0.0,0.0,0.0,0.0,8.266179494158772e-06,-0.18081872165203094,1493.0,0.0,0.0,1020.0,0.0,-0.05305800926062762,0.0,5.0,4.926490783691406,0.0,1500.0,0.0,24.822421,0.0,0.0,0.0,1615.0,1500.0,-1.7803708961020003e-05,0.0,0.008028514559173916,0.0,0.0,1.0,0.22305673360824585,8.378303021696604e-06,0.0,24.86198,915.0,0.0,1571.0,5.0,1500.0,,,,,,,,,,,,,,,,
20.000057,-8.461984634399414,0.0,0.0,0.0,0.0,3.35936197535488e-05,-0.1813262701034546,1493.0,0.0,0.0,1019.0,0.0,-0.05305800926062762,0.0,5.0,4.912890434265137,0.0,1500.0,0.0,24.942398999999998,0.0,0.0,0.0,1615.0,1500.0,3.545665151502986e-06,0.0,0.008028514559173916,0.0,0.0,1.0,0.2628882825374603,2.2890177594759963e-06,0.0,24.96198,915.0,0.0,1572.0,5.0,1500.0,,,,,,,,,,,,,,,,
20.100082,-8.48865032196045,0.0,0.0,0.0,0.0,5.0316433405226276e-05,-0.19249653816223145,1493.0,0.0,0.0,1019.0,0.0,-0.05305800926062762,0.0,5.0,4.928427696228027,0.0,1500.0,0.0,25.022702,0.0,0.0,0.0,1616.0,1500.0,8.644577986133549e-06,0.0,0.008028514559173916,0.0,0.0,1.0,0.21509040892124176,-1.09974318014629e-05,0.0,25.062005,915.0,0.0,1571.0,5.0,1500.0,,,,,,,,,,,,,,,,
20.200027,-8.512351989746094,0.0,0.0,0.0,0.0,1.2571382315200438e-05,-0.18941666185855865,1493.0,0.0,0.0,1019.0,0.0,-0.05305800926062762,0.0,5.0,4.939302444458008,0.0,1501.0,0.0,25.142415999999997,0.0,0.0,0.0,1615.0,1500.0,2.1080561899542313e-06,0.0,0.008028514559173916,0.0,0.0,1.0,0.24695566296577454,-2.1877952066424366e-05,0.0,25.161949999999997,915.0,0.0,1571.0,5.0,1500.0,,,,,,,,,,,,,,,,
20.300087,-8.537073135375977,0.0,0.0,0.0,0.0,1.8994396272211535e-05,-0.20401819050312042,1494.0,0.0,0.0,1019.0,0.0,-0.05305800926062762,0.0,5.0,4.954500198364258,0.0,1500.0,0.0,25.222445999999998,0.0,0.0,0.0,1615.0,1500.0,7.670397471096891e-06,0.0,0.008028514559173916,0.0,0.0,1.0,0.18056973814964294,2.1923270017590997e-06,0.0,25.26201,915.0,0.0,1571.0,5.0,1500.0,,,,,,,,,,,,,,,,
20.4,-8.53155517578125,0.0,0.0,0.0,0.0,-7.486072332897562e-06,-0.19871588051319122,1493.0,0.0,0.0,1019.0,0.0,-0.05305800926062762,0.0,5.0,4.958321571350098,0.0,1500.0,0.0,25.342377,0.0,0.0,0.0,1615.0,1500.0,-8.41248095328115e-06,0.0,0.008028514559173916,0.0,0.0,1.0,0.16994798183441162,-7.507267374486278e-06,0.0,25.361922999999997,916.0,0.0,1571.0,5.0,1500.0,,,,,,,,,,,,,,,,
20.500073,-8.528032302856445,0.0,0.0,0.0,0.0,-2.4905423442600438e-06,-0.19458015263080597,1493.0,0.0,0.0,1020.0,0.0,-0.05305800926062762,0.0,5.0,4.956142425537109,0.0,1500.0,0.0,25.422494999999998,0.0,0.0,0.0,1615.0,1500.0,-1.03428023747895e-05,0.0,0.008028514559173916,0.0,0.0,1.0,0.15667079389095306,-1.1930593465042605e-06,0.0,25.461996,915.0,0.0,1571.0,5.0,1500.0,,,,,,,,,,,,,,,,
20.600066,-8.513530731201172,0.0,0.0,0.0,0.0,-2.4412091909234905e-05,-0.19597557187080383,1493.0,0.0,0.0,1020.0,0.0,-0.05305800926062762,0.0,5.0,4.961938858032227,0.0,1500.0,0.0,25.542838999999997,0.0,0.0,0.0,1615.0,1500.0,-1.8105631632549255e-06,0.0,0.008028514559173916,0.0,0.0,1.0,0.15401536226272583,7.704933004878591e-06,0.0,25.561989,915.0,0.0,1571.0,5.0,1500.0,,,,,,,,,,,,,,,,
20.70003,-8.497270584106445,0.0,0.0,0.0,0.0,-1.4517482171721718e-06,-0.18046805262565613,1493.0,0.0,0.0,1019.0,0.0,-0.05305800926062762,0.0,5.0,4.941704750061035,0.0,1500.0,0.0,25.622809,0.0,0.0,0.0,1615.0,1500.0,-8.890669252695605e-06,0.0,0.008028514559173916,0.0,0.0,1.0,0.3345851004123688,4.623311817589979e-06,0.0,25.661953,915.0,0.0,1572.0,5.0,1500.0,,,,,,,,,,,,,,,,
20.800074,-8.479366302490234,0.0,0.0,0.0,0.0,-8.262900627422082e-06,-0.18581730127334595,1494.0,0.0,0.0,1019.0,0.0,-0.05305800926062762,0.0,5.0,4.925889015197754,0.0,1500.0,0.0,25.742417,0.0,0.0,0.0,1615.0,1500.0,-1.3985085392084253e-05,0.0,0.008028514559173916,0.0,0.0,1.0,0.32396334409713745,2.570935280250105e-06,0.0,25.761996999999997,915.0,0.0,1571.0,5.0,1500.0,,,,,,,,,,,,,,,,
20.900094,-8.477235794067383,0.0,0.0,0.0,0.0,1.3606743283410447e-05,-0.18668144941329956,1493.0,0.0,0.0,1020.0,0.0,-0.05305800926062762,0.0,5.0,4.929734230041504,0.0,1500.0,0.0,25.822440999999998,0.0,0.0,0.0,1615.0,1500.0,1.1911186942397327e-06,0.0,0.008028514559173916,0.0,0.0,1.0,0.25492197275161743,-7.188585401690253e-06,0.0,25.862016999999998,915.0,0.0,1571.0,5.0,1500.0,,,,,,,,,,,,,,,,
21.000031,-8.495426177978516,0.0,0.0,0.0,0.0,3.120220585584677e-05,-0.19046737253665924,1494.0,0.0,0.0,1019.0,0.0,-0.05305800926062762,0.0,5.0,4.9280104637146,0.0,1500.0,0.0,25.942366,0.0,0.0,0.0,1615.0,1500.0,5.225142092585828e-06,0.0,0.008028514559173916,0.0,0.0,1.0,0.1513599157333374,-1.3707156354906813e-05,0.0,25.961954,915.0,0.0,1571.0,5.0,1500.0,,,,,,,,,,,,,,,,
21.100058,-8.48853874206543,0.0,0.0,0.0,0.0,8.313449526637426e-06,-0.18256960809230804,1493.0,0.0,0.0,1019.0,0.0,-0.05305800926062762,0.0,5.0,4.93699312210083,0.0,1500.0,0.0,26.022823,0.0,0.0,0.0,1615.0,1501.0,1.0146002304260753e-05,0.0,0.008028514559173916,0.0,0.0,1.0,0.31334158778190613,-5.822935120049034e-06,0.0,26.061981,915.0,0.0,1571.0,5.0,1500.0,,,,,,,,,,,,,,,,
21.200033,-8.499879837036133,0.0,0.0,0.0,0.0,1.3112545174266012e-05,-0.19419220089912415,1493.0,0.0,0.0,1020.0,0.0,-0.05305800926062762,0.0,5.0,4.942629337310791,0.0,1500.0,0.0,26.142417,0.0,0.0,0.0,1615.0,1500.0,1.2241505463394356e-05,0.0,0.008028514559173916,0.0,0.0,1.0,0.28944265842437744,-8.065255950283506e-07,0.0,26.161956,915.0,0.0,1571.0,5.0,1501.0,,,,,,,,,,,,,,,,
21.299993,-8.498287200927734,0.0,0.0,0.0,0.0,8.239507145053134e-06,-0.20051804184913635,1493.0,0.0,0.0,1020.0,0.0,-0.05305800926062762,0.0,5.0,4.941601753234863,0.0,1500.0,0.0,26.222417,0.0,0.0,0.0,1615.0,1500.0,-2.159381883430937e-06,0.0,0.008028514559173916,0.0,0.0,1.0,0.12746098637580872,-1.1013267889670968e-05,0.0,26.261916,915.0,0.0,1571.0,5.0,1500.0,,,,,,,,,,,,,,,,
21.400063,-8.503866195678711,0.0,0.0,0.0,0.0,2.543067706755398e-06,-0.18953484296798706,1493.0,0.0,0.0,1020.0,0.0,-0.05305800926062762,0.0,5.0,4.951482772827148,0.0,1500.0,0.0,26.342385,0.0,0.0,0.0,1615.0,1500.0,-1.6681008735731744e-05,0.0,0.008028514559173916,0.0,0.0,1.0,0.14073817431926727,-1.2958664478803098e-05,0.0,26.361985999999998,915.0,0.0,1571.0,5.0,1500.0,,,,,,,,,,,,,,,,
21.500079,-8.941603660583496,0.0,0.0,0.0,0.0,-0.00020977757617331313,-0.21778805553913116,1493.0,0.0,0.0,1020.0,0.0,-0.05305800926062762,0.0,5.0,4.975253582000732,0.0,1500.0,0.0,26.422434,0.0,0.0,0.0,1615.0,1500.0,2.6288050685368486e-05,0.0,0.008028514559173916,0.0,0.0,1.0,0.2018132209777832,-0.004065746087088493,0.0,26.462002,936.0,0.0,1571.0,5.0,1500.0,,,,,,,,,,,,,,,,
21.600059,-8.896817207336426,0.0,0.0,0.0,0.0,-6.97021054042138e-05,-0.12452898919582367,1494.0,0.0,0.0,1020.0,0.0,-0.05305800926062762,0.0,5.0,4.760361194610596,0.0,1500.0,0.0,26.542949999999998,0.0,0.0,0.0,1615.0,1500.0,-6.419064281380141e-05,0.0,0.008028514559173916,0.0,0.0,1.0,0.0929403007030487,0.0007022041240330456,0.0,26.561982,975.0,0.0,1570.0,5.0,1500.0,,,,,,,,,,,,,,,,
21.700071,-8.340309143066406,0.0,0.0,0.0,0.0,-9.576187788246597e-05,-0.0814596563577652,1494.0,0.0,0.0,1020.0,0.0,-0.05305800926062762,0.0,5.0,4.447277545928955,0.0,1500.0,0.0,26.622747999999998,0.0,0.0,0.0,1615.0,1500.0,7.080018593732639e-06,0.0,0.008028514559173916,0.0,0.0,1.0,0.2947535216808319,-0.002612510314874318,0.0,26.661994,984.0,0.0,1570.0,5.0,1500.0,,,,,,,,,,,,,,,,
21.800028,-8.828557968139648,0.0,0.0,0.0,0.0,-5.552166660503474e-05,-0.21326898038387299,1493.0,0.0,0.0,1020.0,0.0,-0.05305800926062762,0.0,5.0,4.527905464172363,0.0,1500.0,0.0,26.742435999999998,0.0,0.0,0.0,1615.0,1500.0,2.833408587920087e-05,0.0,0.008028514559173916,0.0,0.0,1.0,0.09559573978185654,-0.0013232148642579752,0.0,26.761951,1011.0,0.0,1571.0,5.0,1500.0,,,,,,,,,,,,,,,,
21.900075,-8.606098175048828,0.0,0.0,0.0,0.0,-5.108701737615759e-05,-0.16449886560440063,1493.0,0.0,0.0,1020.0,0.0,-0.05305800926062762,0.0,5.0,4.071953773498535,0.0,1500.0,0.0,26.822806,0.0,0.0,0.0,1615.0,1500.0,2.7174046701769985e-05,0.0,0.008028514559173916,0.0,0.0,1.0,0.15401536226272583,-0.0022796695341483807,0.0,26.861998,1066.0,0.0,1571.0,5.0,1500.0,,,,,,,,,,,,,,,,
22.000048,-7.939040184020996,0.0,0.0,0.0,0.0,-0.00018431938811854626,-0.21500401198863983,1493.0,0.0,0.0,1020.0,0.0,-0.05305800926062762,0.0,5.0,3.34171724319458,0.0,1500.0,0.0,26.942375,0.0,0.0,0.0,1615.0,1500.0,0.00024102175152338956,0.0,0.008028514559173916,0.0,0.0,1.0,0.30006441473960876,-0.014075183988988969,0.0,26.961971,1116.0,0.0,1571.0,5.0,1500.0,,,,,,,,,,,,,,,,
22.100054,-9.937114715576172,0.0,0.0,0.0,0.0,8.3156969345367e-05,-0.265228271484375,1493.0,0.0,0.0,1019.0,0.0,-0.05305800926062762,0.0,5.0,3.887406826019287,0.0,1500.0,0.0,27.022824999999997,0.0,0.0,0.0,1615.0,1500.0,4.5376191560831725e-05,0.0,0.008028514559173916,0.0,0.0,1.0,0.2602328360080719,-0.0015738265151756753,0.0,27.061977,1152.0,0.0,1571.0,5.0,1500.0,,,,,,,,,,,,,,,,
22.200046,-9.650152206420898,0.0,0.0,0.0,0.0,-7.862523924728514e-05,-0.162680983543396,1493.0,0.0,0.0,1019.0,0.0,-0.05305800926062762,0.0,5.0,3.68464732170105,0.0,1500.0,0.0,27.142377,0.0,0.0,0.0,1614.0,1500.0,-4.589748616373325e-05,0.0,0.008028514559173916,0.0,0.0,1.0,0.22836759686470032,3.475204159376983e-05,0.0,27.161969,1163.0,0.0,1571.0,5.0,1500.0,,,,,,,,,,,,,,,,
22.300004,-9.922769546508789,0.0,0.0,0.0,0.0,-0.0003317747035576394,-0.12067430466413498,1493.0,0.0,0.0,1020.0,0.0,-0.05305800926062762,0.0,5.0,3.755011796951294,0.0,1500.0,0.0,27.222454,0.0,0.0,0.0,1615.0,1500.0,-8.246912964646357e-05,0.0,0.008028514559173916,0.0,0.0,1.0,0.1672925502061844,-0.002323808828473192,0.0,27.261927,1167.0,0.0,1570.0,5.0,1500.0,,,,,,,,,,,,,,,,
22.40006,-9.36841106414795,0.0,0.0,0.0,0.0,-0.0006211659395784946,-0.1998201459646225,1493.0,0.0,0.0,1019.0,0.0,-0.05305800926062762,0.0,5.0,3.210759401321411,0.0,1500.0,0.0,27.342456,0.0,0.0,0.0,1614.0,1500.0,-2.1710781166577442e-05,0.0,0.008028514559173916,0.0,0.0,1.0,0.3106861412525177,-0.010692453417127133,0.0,27.361983,1200.0,0.0,1571.0,5.0,1500.0,,,,,,,,,,,,,,,,
22.500061,-9.338306427001953,0.0,0.0,0.0,0.0,-0.00023181963920260195,-0.10910525918006897,1493.0,0.0,0.0,1020.0,0.0,-0.05305800926062762,0.0,5.0,3.0416808128356934,0.0,1500.0,0.0,27.422428,0.0,0.0,0.0,1614.0,1500.0,-0.00010010646012159625,0.0,0.008028514559173916,0.0,0.0,1.0,0.21243497729301453,0.001113331112741398,0.0,27.461983999999998,1226.0,0.0,1570.0,5.0,1500.0,,,,,,,,,,,,,,,,
22.60005,-8.885332107543945,0.0,0.0,0.0,0.0,-0.00010981334419831231,0.0037093772552907467,1493.0,0.0,0.0,1020.0,0.0,-0.05305800926062762,0.0,5.0,2.628614902496338,0.0,1500.0,0.0,27.542914999999997,0.0,0.0,0.0,1613.0,1500.0,3.503619311236082e-05,0.0,0.008028514559173916,0.0,0.0,1.0,0.32396334409713745,-0.0029050601210654737,0.0,27.561973,1244.0,0.0,1570.0,5.0,1500.0,,,,,,,,,,,,,,,,
22.700075,-9.52253532409668,0.0,0.0,0.0,0.0,0.0001153123557304056,0.03285500034689903,1493.0,0.0,0.0,1019.0,0.0,-0.05305800926062762,0.0,5.0,2.6584157943725586,0.0,1500.0,0.0,27.622722999999997,0.0,0.0,0.0,1612.0,1500.0,4.116674637927376e-05,0.0,0.008028514559173916,0.0,0.0,1.0,0.11949467658996582,-0.0011256041501848924,0.0,27.661997999999997,1270.0,0.0,1571.0,5.0,1500.0,,,,,,,,,,,,,,,,
22.800006,-9.202178955078125,0.0,0.0,0.0,0.0,0.00015399914306339903,-0.12807969748973846,1493.0,0.0,0.0,1020.0,0.0,-0.05305800926062762,0.0,5.0,2.2118568420410156,0.0,1500.0,0.0,27.742423,0.0,0.0,0.0,1611.0,1500.0,0.00010759167552991057,0.0,0.008028514559173916,0.0,0.0,1.0,0.18056973814964294,-0.004035011803707623,0.0,27.761929,1297.0,0.0,1570.0,5.0,1500.0,,,,,,,,,,,,,,,,
22.900084,-10.179485321044922,0.0,0.0,0.0,0.0,0.00022760786554310114,-0.16944491863250732,1492.0,0.0,0.0,1019.0,0.0,-0.05305800926062762,0.0,5.0,2.3894174098968506,0.0,1500.0,0.0,27.822454999999998,0.0,0.0,0.0,1611.0,1500.0,0.00010138911418420704,0.0,0.008028514559173916,0.0,0.0,1.0,0.31599703431129456,-0.002626919472787868,0.0,27.862007,1313.0,0.0,1571.0,5.0,1500.0,,,,,,,,,,,,,,,,
23.000042,-10.011970520019531,0.0,0.0,0.0,0.0,7.728640913043048e-05,-0.07767795026302338,1492.0,0.0,0.0,1019.0,0.0,-0.05305800926062762,0.0,5.0,2.1677980422973633,0.0,1500.0,0.0,27.942366,0.0,0.0,0.0,1610.0,1500.0,3.3237905127082997e-06,0.0,0.008028514559173916,0.0,0.0,1.0,0.0504533052444458,-0.0002754942619815021,0.0,27.961965,1338.0,0.0,1571.0,5.0,1500.0,,,,,,,,,,,,,,,,
23.100065,-9.743608474731445,0.0,0.0,0.0,0.0,-0.00027979088488960037,-0.08419786393642426,1492.0,0.0,0.0,1020.0,0.0,-0.05305800926062762,0.0,5.0,1.9217959642410278,0.0,1500.0,0.0,28.022809,0.0,0.0,0.0,1610.0,1500.0,6.468305494379073e-06,0.0,0.008028514559173916,0.0,0.0,1.0,0.045142434537410736,-0.00488669254083524,0.0,28.061988,1343.0,0.0,1570.0,5.0,1500.0,,,,,,,,,,,,,,,,
23.200046,-9.801729202270508,0.0,0.0,0.0,0.0,-0.00029451050652886133,-0.1092485561966896,1492.0,0.0,0.0,1019.0,0.0,-0.05305800926062762,0.0,5.0,1.8032035827636719,0.0,1500.0,0.0,28.142381,0.0,0.0,0.0,1607.0,1500.0,-2.5814290760889812e-05,0.0,0.008028514559173916,0.0,0.0,1.0,0.16198167204856873,-0.002787141641795435,0.0,28.161969,1369.0,0.0,1570.0,5.0,1500.0,,,,,,,,,,,,,,,,
23.300023,-9.621718406677246,0.0,0.0,0.0,0.0,-0.0002771762926797528,-0.07269395142793655,1491.0,0.0,0.0,1019.0,0.0,-0.05305800926062762,0.0,5.0,1.6694927215576172,0.0,1500.0,0.0,28.22241,0.0,0.0,0.0,1606.0,1500.0,-3.8925433971996526e-05,0.0,0.008028514559173916,0.0,0.0,1.0,0.11683923751115799,-0.0010679911202757053,0.0,28.261946,1383.0,0.0,1570.0,5.0,1500.0,,,,,,,,,,,,,,,,
23.40002,-9.479974746704102,0.0,0.0,0.0,0.0,-0.00010866246654535283,-0.0804852843284607,1492.0,0.0,0.0,1019.0,0.0,-0.05305800926062762,0.0,5.0,1.5941963195800781,0.0,1500.0,0.0,28.342425,0.0,0.0,0.0,1604.0,1500.0,-1.0340401766858036e-05,0.0,0.008028514559173916,0.0,0.0,1.0,0.2363339066505432,-0.0007685116336895145,0.0,28.361943,1393.0,0.0,1569.0,5.0,1500.0,,,,,,,,,,,,,,,,
23.500078,-9.426047325134277,0.0,0.0,0.0,0.0,7.146704292094566e-05,-0.08950917422771454,1491.0,0.0,0.0,1019.0,0.0,-0.05305800926062762,0.0,5.0,1.4914504289627075,0.0,1500.0,0.0,28.422445999999997,0.0,0.0,0.0,1604.0,1500.0,1.4090331172818863e-05,0.0,0.008028514559173916,0.0,0.0,1.0,0.09028486907482147,-0.00040594113917309416,0.0,28.462000999999997,1400.0,0.0,1569.0,5.0,1500.0,,,,,,,,,,,,,,,,
23.600033,-9.457403182983398,0.0,0.0,0.0,0.0,0.00016580170605260127,-0.03951841592788696,1490.0,0.0,0.0,1019.0,0.0,-0.05305800926062762,0.0,5.0,1.3787933588027954,0.0,1500.0,0.0,28.542714,0.0,0.0,0.0,1604.0,1501.0,3.0032844639321887e-05,0.0,0.008028514559173916,0.0,0.0,1.0,0.25492197275161743,-0.001170852661506695,0.0,28.561956,1406.0,0.0,1569.0,5.0,1500.0,,,,,,,,,,,,,,,,
23.700035,-9.829551696777344,0.0,0.0,0.0,0.0,0.00019007371136476234,-0.0945013165473938,1491.0,0.0,0.0,1019.0,0.0,-0.05305800926062762,0.0,5.0,1.4528160095214844,0.0,1500.0,0.0,28.622915,0.0,0.0,0.0,1603.0,1500.0,3.322901180425945e-05,0.0,0.008028514559173916,0.0,0.0,1.0,0.1672925502061844,-0.0006419362554121857,0.0,28.661958,1412.0,0.0,1568.0,5.0,1500.0,,,,,,,,,,,,,,,,
23.800065,-9.798738479614258,0.0,0.0,0.0,0.0,0.00013212215408471017,-0.08912048488855362,1491.0,0.0,0.0,1020.0,0.0,-0.05305800926062762,0.0,5.0,1.324449062347412,0.0,1500.0,0.0,28.742379,0.0,0.0,0.0,1602.0,1500.0,1.5333248723101563e-05,0.0,0.008028514559173916,0.0,0.0,1.0,0.2018132209777832,-0.0005813650100909766,0.0,28.761988,1416.0,0.0,1568.0,5.0,1500.0,,,,,,,,,,,,,,,,
23.900018,-9.885993957519531,0.0,0.0,0.0,0.0,-2.1229562391725172e-05,-0.1021043062210083,1491.0,0.0,0.0,1020.0,0.0,-0.05305800926062762,0.0,5.0,1.3416759967803955,0.0,1501.0,0.0,28.822436999999997,0.0,0.0,0.0,1602.0,1500.0,1.1444992285423364e-05,0.0,0.008028514559173916,0.0,0.0,1.0,0.09559573978185654,-0.0006081039666694965,0.0,28.861940999999998,1417.0,0.0,1568.0,5.0,1500.0,,,,,,,,,,,,,,,,
24.000045,-10.055216789245605,0.0,0.0,0.0,0.0,-0.00014461527129858514,-0.09830029308795929,1490.0,0.0,0.0,1020.0,0.0,-0.05305800926062762,0.0,5.0,1.431674838066101,0.0,1500.0,0.0,28.942403,0.0,0.0,0.0,1602.0,1500.0,-2.575179977693712e-05,0.0,0.008028514559173916,0.0,0.0,1.0,0.2628882825374603,-0.00045077310895379316,0.0,28.961968,1422.0,0.0,1568.0,5.0,1500.0,,,,,,,,,,,,,,,,
24.100111,-9.78554630279541,0.0,0.0,0.0,0.0,-0.0002249010769849691,-0.053101662546396255,1490.0,0.0,0.0,1020.0,0.0,-0.05305800926062762,0.0,5.0,1.2855665683746338,0.0,1500.0,0.0,29.022804999999998,0.0,0.0,0.0,1602.0,1500.0,-2.1381071940801275e-05,0.0,0.008028514559173916,0.0,0.0,1.0,0.18322516977787018,-0.001277967263196311,0.0,29.062033999999997,1425.0,0.0,1568.0,5.0,1500.0,,,,,,,,,,,,,,,,
24.200025,-9.757756233215332,0.0,0.0,0.0,0.0,-0.00015772155437073962,-0.047565288841724396,1489.0,0.0,0.0,1019.0,0.0,-0.05305800926062762,0.0,5.0,1.263639211654663,0.0,1500.0,0.0,29.142398999999997,0.0,0.0,0.0,1602.0,1501.0,-2.60645797896071e-05,0.0,0.008028514559173916,0.0,0.0,1.0,0.13277186453342438,-0.0005094002011662376,0.0,29.161948,1432.0,0.0,1568.0,5.0,1500.0,,,,,,,,,,,,,,,,
24.300515,-9.389202117919922,0.0,0.0,0.0,0.0,-5.455634385578498e-05,-0.06028967723250389,1490.0,0.0,0.0,1019.0,0.0,-0.05305800926062762,0.0,5.0,1.051904320716858,0.0,1500.0,0.0,29.222400999999998,0.0,0.0,0.0,1601.0,1500.0,-8.501741814211434e-06,0.0,0.008028514559173916,0.0,0.0,1.0,0.24961109459400177,-0.0005736685655666614,0.0,29.262438,1436.0,0.0,1567.0,5.0,1500.0,,,,,,,,,,,,,,,,
24.400079,-9.521194458007812,0.0,0.0,0.0,0.0,4.605470922064116e-05,-0.057795505970716476,1489.0,0.0,0.0,1019.0,0.0,-0.05305800926062762,0.0,5.0,1.072404146194458,0.0,1500.0,0.0,29.342395999999997,0.0,0.0,0.0,1600.0,1500.0,6.107605771375097e-06,0.0,0.008028514559173916,0.0,0.0,1.0,0.24961109459400177,-0.0007755141348956067,0.0,29.362002,1447.0,0.0,1567.0,5.0,1500.0,,,,,,,,,,,,,,,,
24.50005,-9.645237922668457,0.0,0.0,0.0,0.0,8.661573843285568e-05,-0.06693947315216064,1488.0,0.0,0.0,1020.0,0.0,-0.05305800926062762,0.0,5.0,0.9508887529373169,0.0,1500.0,0.0,29.422434,0.0,0.0,0.0,1599.0,1500.0,2.7956163343559522e-05,0.0,0.008028514559173916,0.0,0.0,1.0,0.23102304339408875,-0.0010267210309251153,0.0,29.461973,1462.0,0.0,1565.0,5.0,1500.0,,,,,,,,,,,,,,,,
24.600025,-9.712883949279785,0.0,0.0,0.0,0.0,0.00013128401580780736,-0.08320185542106628,1487.0,0.0,0.0,1020.0,0.0,-0.05305800926062762,0.0,5.0,0.8312230706214905,0.0,1500.0,0.0,29.542733,0.0,0.0,0.0,1599.0,1500.0,2.4642934286651264e-05,0.0,0.008028514559173916,0.0,0.0,1.0,0.14604905247688293,-0.0012368890436791396,0.0,29.561947999999997,1469.0,0.0,1564.0,5.0,1501.0,,,,,,,,,,,,,,,,
24.700029,-10.239655494689941,0.0,0.0,0.0,0.0,6.437416588684547e-06,-0.13419701159000397,1487.0,0.0,0.0,1020.0,0.0,-0.05305800926062762,0.0,5.0,0.9671119451522827,0.0,1500.0,0.0,29.622951999999998,0.0,0.0,0.0,1598.0,1501.0,3.002804748712029e-05,0.0,0.008028514559173916,0.0,0.0,1.0,0.2681991457939148,-0.002504334219826386,0.0,29.661952,1474.0,0.0,1564.0,5.0,1500.0,,,,,,,,,,,,,,,,
24.800089,-10.035468101501465,0.0,0.0,0.0,0.0,-0.00014049133774242167,-0.019053688272833824,1486.0,0.0,0.0,1019.0,0.0,-0.05305800926062762,0.0,5.0,0.7157120704650879,0.0,1500.0,0.0,29.742461,0.0,0.0,0.0,1596.0,1500.0,1.1751204405466635e-05,0.0,0.008028514559173916,0.0,0.0,1.0,0.17525885999202728,-0.0026405944408813696,0.0,29.762012,1496.0,0.0,1563.0,5.0,1500.0,,,,,,,,,,,,,,,,
24.900043,-10.099637985229492,0.0,0.0,0.0,0.0,-0.00023787746918633,-0.04070069640874863,1485.0,0.0,0.0,1020.0,0.0,-0.05305800926062762,0.0,5.0,0.6293134689331055,0.0,1500.0,0.0,29.822435,0.0,0.0,0.0,1596.0,1500.0,-1.1949676672633212e-05,0.0,0.008028514559173916,0.0,0.0,1.0,0.08231855183839798,-0.0020611985185250863,0.0,29.861966,1509.0,0.0,1562.0,5.0,1500.0,,,,,,,,,,,,,,,,
25.000058,-9.973260879516602,0.0,0.0,0.0,0.0,-0.00034743582676342605,-0.007326405495405197,1485.0,0.0,0.0,1019.0,0.0,-0.05305800926062762,0.0,5.0,0.415557861328125,0.0,1500.0,0.0,29.942414999999997,0.0,0.0,0.0,1594.0,1500.0,1.9257514279751728e-05,0.0,0.008028514559173916,0.0,0.0,1.0,0.1593262255191803,-0.003624277722286071,0.0,29.961980999999998,1529.0,0.0,1562.0,5.0,1500.0,,,,,,,,,,,,,,,,
25.100012,-9.306445121765137,0.0,0.0,0.0,0.0,-0.0001756256235756587,0.020877908915281296,1485.0,0.0,0.0,1019.0,0.0,-0.05305800926062762,0.0,5.0,0.037751443684101105,0.0,1501.0,0.0,30.022689999999997,0.0,0.0,0.0,1592.0,1500.0,3.90334328832831e-06,0.0,0.008028514559173916,0.0,0.0,1.0,0.19119147956371307,-0.0013811386179671985,0.0,30.061935,1552.0,0.0,1562.0,5.0,1500.0,,,,,,,,,,,,,,,,
25.199846,-9.40974235534668,0.0,0.0,0.0,0.0,-3.074033823625414e-05,-0.04161780700087547,1485.0,0.0,0.0,1020.0,0.0,-0.05305800926062762,0.0,5.0,0.08796077221632004,0.0,1500.0,0.0,30.142241,0.0,0.0,0.0,1592.0,1500.0,-3.228925862802155e-06,0.0,0.008028514559173916,0.0,0.0,1.0,0.14073817431926727,-0.000512808247632989,0.0,30.161769,1558.0,0.0,1561.0,5.0,1500.0,,,,,,,,,,,,,,,,
25.300022,-9.534172058105469,0.0,0.0,0.0,0.0,-2.888850744927514e-06,-0.07430759072303772,1484.0,0.0,0.0,1019.0,0.0,-0.05305800926062762,0.0,5.0,-0.12186919152736664,0.0,1500.0,0.0,30.222365999999997,0.0,0.0,0.0,1592.0,1501.0,2.6935822683545323e-05,0.0,0.008028514559173916,0.0,0.0,1.0,0.21243497729301453,-0.004107354338080429,0.0,30.261944999999997,1568.0,0.0,1562.0,5.0,1500.0,,,,,,,,,,,,,,,,
25.400016,-10.03477668762207,0.0,0.0,0.0,0.0,7.429175893091197e-05,-0.1333458125591278,1485.0,0.0,0.0,1020.0,0.0,-0.05305800926062762,0.0,5.0,-0.1343754380941391,0.0,1501.0,0.0,30.342344999999998,0.0,0.0,0.0,1589.0,1500.0,1.5235284007557307e-05,0.0,0.008028514559173916,0.0,0.0,1.0,0.17525885999202728,-0.00472265690199722,0.0,30.361939,1597.0,0.0,1560.0,5.0,1500.0,,,,,,,,,,,,,,,,
25.5,-11.221736907958984,0.0,0.0,0.0,0.0,-0.00016234915436694945,-0.029673876240849495,1483.0,0.0,0.0,1020.0,0.0,-0.05305800926062762,0.0,5.0,0.030002247542142868,0.0,1500.0,0.0,30.422193,0.0,0.0,0.0,1589.0,1500.0,6.639290343568486e-05,0.0,0.008028514559173916,0.0,0.0,1.0,0.2443002164363861,-0.009717162214048084,0.0,30.461923,1611.0,0.0,1561.0,5.0,1500.0,,,,,,,,,,,,,,,,
25.600018,-10.266336441040039,0.0,0.0,0.0,0.0,-0.00028025739321043335,0.044142454862594604,1484.0,0.0,0.0,1020.0,0.0,-0.05305800926062762,0.0,5.0,-0.766568660736084,0.0,1500.0,0.0,30.542624999999997,0.0,0.0,0.0,1587.0,1501.0,2.0124270891580197e-05,0.0,0.008028514559173916,0.0,0.0,1.0,0.13808274269104004,-0.0063265373461190355,0.0,30.561940999999997,1657.0,0.0,1560.0,5.0,1500.0,,,,,,,,,,,,,,,,
25.699925,-9.94837760925293,0.0,0.0,0.0,0.0,-0.00036438474049974625,0.015302066691219807,1483.0,0.0,0.0,1020.0,0.0,-0.05305800926062762,0.0,5.0,-0.9161386489868164,0.0,1500.0,0.0,30.622881999999997,0.0,0.0,0.0,1586.0,1500.0,1.806354556203517e-05,0.0,0.008028514559173916,0.0,0.0,1.0,0.252266526222229,-0.002952121090359616,0.0,30.661848,1684.0,0.0,1560.0,5.0,1501.0,,,,,,,,,,,,,,,,
25.79992,-9.395828247070312,0.0,0.0,0.0,0.0,-0.0005636679275396284,0.061276715248823166,1483.0,0.0,0.0,1019.0,0.0,-0.05305800926062762,0.0,5.0,-1.3249067068099976,0.0,1500.0,0.0,30.742345999999998,0.0,0.0,0.0,1586.0,1500.0,8.505874659376898e-05,0.0,0.008028514559173916,0.0,0.0,1.0,0.17791429162025452,-0.00633171802667708,0.0,30.761843,1720.0,0.0,1560.0,5.0,1500.0,,,,,,,,,,,,,,,,
25.899957,-9.904760360717773,0.0,0.0,0.0,0.0,-0.0004323079944108298,0.1024162769317627,1483.0,0.0,0.0,1020.0,0.0,-0.05305800926062762,0.0,5.0,-1.216023564338684,0.0,1501.0,0.0,30.82236,0.0,0.0,0.0,1585.0,1500.0,5.346333680384452e-05,0.0,0.008028514559173916,0.0,0.0,1.0,0.20446866750717163,-0.002064443465880645,0.0,30.86188,1726.0,0.0,1560.0,5.0,1500.0,,,,,,,,,,,,,,,,
25.999997,-9.921833992004395,0.0,0.0,0.0,0.0,-0.00024041779392168676,-0.08520485460758209,1483.0,0.0,0.0,1019.0,0.0,-0.05305800926062762,0.0,5.0,-1.1810381412506104,0.0,1500.0,0.0,30.942345,0.0,0.0,0.0,1584.0,1500.0,2.2387329982471863e-05,0.0,0.008028514559173916,0.0,0.0,1.0,0.058419618755578995,-0.0012817023206177147,0.0,30.96192,1754.0,0.0,1560.0,5.0,1500.0,,,,,,,,,,,,,,,,
26.100004,-9.283124923706055,0.0,0.0,0.0,0.0,2.2474233411872328e-05,0.04228220880031586,1482.0,0.0,0.0,1019.0,0.0,-0.05305800926062762,0.0,5.0,-1.5523772239685059,0.0,1500.0,0.0,31.022779,0.0,0.0,0.0,1585.0,1500.0,-1.0732798048246134e-05,0.0,0.008028514559173916,0.0,0.0,1.0,0.284131795167923,-0.0009936136993639296,0.0,31.061926999999997,1771.0,0.0,1560.0,5.0,1500.0,,,,,,,,,,,,,,,,
26.199925,-9.227479934692383,0.0,0.0,0.0,0.0,0.00019355248179332368,0.04258054122328758,1483.0,0.0,0.0,1020.0,0.0,-0.05305800926062762,0.0,5.0,-1.7959330081939697,0.0,1500.0,0.0,31.142190999999997,0.0,0.0,0.0,1584.0,1500.0,-3.0180906171758384e-05,0.0,0.008028514559173916,0.0,0.0,1.0,0.22836759686470032,-0.0016276231494182516,0.0,31.161848,1792.0,0.0,1559.0,5.0,1500.0,,,,,,,,,,,,,,,,
26.299988,-9.598922729492188,0.0,0.0,0.0,0.0,0.00023224094335478558,0.06366834044456482,1482.0,0.0,0.0,1019.0,0.0,-0.05305800926062762,0.0,5.0,-1.9909710884094238,0.0,1500.0,0.0,31.222323999999997,0.0,0.0,0.0,1585.0,1500.0,-2.3978862942874594e-05,0.0,0.008028514559173916,0.0,0.0,1.0,0.30803072452545166,-0.0039504270506988595,0.0,31.261910999999998,1815.0,0.0,1560.0,5.0,1500.0,,,,,,,,,,,,,,,,
26.399997,-9.584759712219238,0.0,0.0,0.0,0.0,0.0001640812656274471,0.1215963363647461,1483.0,0.0,0.0,1020.0,0.0,-0.05305800926062762,0.0,5.0,-2.3698644638061523,0.0,1500.0,0.0,31.342371,0.0,0.0,0.0,1584.0,1500.0,-4.021728410020005e-05,0.0,0.008028514559173916,0.0,0.0,1.0,0.3611394762992859,-0.0033805917206113653,0.0,31.361919999999998,1853.0,0.0,1559.0,5.0,1500.0,,,,,,,,,,,,,,,,
26.499998,-9.680601119995117,0.0,0.0,0.0,0.0,-0.00015778497999679853,0.1574244201183319,1482.0,0.0,0.0,1020.0,0.0,-0.05305800926062762,0.0,5.0,-2.5582704544067383,0.0,1500.0,0.0,31.422407,0.0,0.0,0.0,1584.0,1500.0,2.1987713590813384e-05,0.0,0.008028514559173916,0.0,0.0,1.0,0.3186524510383606,-0.004078128745860061,0.0,31.461921,1870.0,0.0,1559.0,5.0,1500.0,,,,,,,,,,,,,,,,
26.599917,-9.834985733032227,0.0,0.0,0.0,0.0,-0.00026647153592652327,0.058354269713163376,1483.0,0.0,0.0,1020.0,0.0,-0.05305800926062762,0.0,5.0,-2.5328290462493896,0.0,1500.0,0.0,31.542821,0.0,0.0,0.0,1584.0,1500.0,3.606871662904625e-05,0.0,0.008028514559173916,0.0,0.0,1.0,0.3372405171394348,-0.0012753271186840122,0.0,31.56184,1888.0,0.0,1559.0,5.0,1500.0,,,,,,,,,,,,,,,,
26.700015,-9.899454116821289,0.0,0.0,0.0,0.0,-0.00039946161492569466,-0.003702983260154724,1482.0,0.0,0.0,1020.0,0.0,-0.05305800926062762,0.0,5.0,-2.3876442909240723,0.0,1500.0,0.0,31.62276,0.0,0.0,0.0,1584.0,1500.0,7.083308737129525e-05,0.0,0.008028514559173916,0.0,0.0,1.0,0.21243497729301453,-0.001557775768121444,0.0,31.661938,1893.0,0.0,1559.0,5.0,1501.0,,,,,,,,,,,,,,,,
26.800003,-9.51259708404541,0.0,0.0,0.0,0.0,-0.00045223823766482455,0.05140385031700134,1482.0,0.0,0.0,1020.0,0.0,-0.05305800926062762,0.0,5.0,-2.5530941486358643,0.0,1500.0,0.0,31.74234,0.0,0.0,0.0,1584.0,1500.0,9.382340577224237e-05,0.0,0.008028514559173916,0.0,0.0,1.0,0.16994798183441162,-0.004765326256235984,0.0,31.761926,1921.0,0.0,1559.0,5.0,1500.0,,,,,,,,,,,,,,,,
26.900024,-9.00259017944336,0.0,0.0,0.0,0.0,-7.354450037602231e-05,0.0738547295331955,1482.0,0.0,0.0,1019.0,0.0,-0.05305800926062762,0.0,5.0,-2.699676036834717,0.0,1500.0,0.0,31.822187999999997,0.0,0.0,0.0,1584.0,1500.0,1.2781718441623738e-05,0.0,0.008028514559173916,0.0,0.0,1.0,0.14604905247688293,-0.00015148952335306153,0.0,31.861946999999997,1940.0,0.0,1560.0,5.0,1500.0,,,,,,,,,,,,,,,,
26.999926,-8.958696365356445,0.0,0.0,0.0,0.0,7.99543978501713e-05,0.06000848859548569,1482.0,0.0,0.0,1020.0,0.0,-0.05305800926062762,0.0,5.0,-2.690058469772339,0.0,1500.0,0.0,31.942234,0.0,0.0,0.0,1584.0,1500.0,-1.9214817390143783e-05,0.0,0.008028514559173916,0.0,0.0,1.0,0.14604905247688293,-0.00012567287160493825,0.0,31.961848999999997,1940.0,0.0,1559.0,5.0,1500.0,,,,,,,,,,,,,,,,
27.099919999999997,-9.161921501159668,0.0,0.0,0.0,0.0,0.00017835978495651835,0.08539661765098572,1482.0,0.0,0.0,1020.0,0.0,-0.05305800926062762,0.0,5.0,-2.7566308975219727,0.0,1500.0,0.0,32.022833,0.0,0.0,0.0,1584.0,1500.0,-5.0689184931823546e-05,0.0,0.008028514559173916,0.0,0.0,1.0,0.1858806014060974,-0.0001172950242212684,0.0,32.061842999999996,1940.0,0.0,1559.0,5.0,1500.0,,,,,,,,,,,,,,,,
27.199990999999997,-9.404838562011719,0.0,0.0,0.0,0.0,0.00019763301544646888,0.09399738162755966,1483.0,0.0,0.0,1019.0,0.0,-0.05305800926062762,0.0,5.0,-2.835515260696411,0.0,1500.0,0.0,32.142317,0.0,0.0,0.0,1583.0,1501.0,-4.255824967430469e-05,0.0,0.008028514559173916,0.0,0.0,1.0,0.24164478480815887,-0.0001255224998810349,0.0,32.161913999999996,1940.0,0.0,1559.0,5.0,1500.0,,,,,,,,,,,,,,,,
27.299996,-9.57474136352539,0.0,0.0,0.0,0.0,0.0001239537721880234,0.06444375216960907,1482.0,0.0,0.0,1020.0,0.0,-0.05305800926062762,0.0,5.0,-2.874497890472412,0.0,1500.0,0.0,32.222359,0.0,0.0,0.0,1584.0,1500.0,-3.448757038700632e-05,0.0,0.008028514559173916,0.0,0.0,1.0,0.14870448410511017,-6.788945237612984e-05,0.0,32.261919,1940.0,0.0,1559.0,5.0,1500.0,,,,,,,,,,,,,,,,
27.400014,-9.673948287963867,0.0,0.0,0.0,0.0,2.7659375870058863e-05,0.051530007272958755,1482.0,0.0,0.0,1020.0,0.0,-0.05305800926062762,0.0,5.0,-2.8651411533355713,0.0,1500.0,0.0,32.342358,0.0,0.0,0.0,1584.0,1500.0,7.2002681740389e-07,0.0,0.008028514559173916,0.0,0.0,1.0,0.26554372906684875,-4.57551147730759e-06,0.0,32.361937,1940.0,0.0,1559.0,5.0,1500.0,,,,,,,,,,,,,,,,
27.499879999999997,-9.550439834594727,0.0,0.0,0.0,0.0,-7.258825584618666e-05,0.06283044070005417,1482.0,0.0,0.0,1020.0,0.0,-0.05305800926062762,0.0,5.0,-2.8716020584106445,0.0,1500.0,0.0,32.422334,0.0,0.0,0.0,1584.0,1500.0,1.302065766424271e-05,0.0,0.008028514559173916,0.0,0.0,1.0,0.16994798183441162,1.4266909448647741e-05,0.0,32.461802999999996,1940.0,0.0,1559.0,5.0,1500.0,,,,,,,,,,,,,,,,
27.599998999999997,-9.403039932250977,0.0,0.0,0.0,0.0,-0.00011823902900317417,0.037954285740852356,1482.0,0.0,0.0,1020.0,0.0,-0.05305800926062762,0.0,5.0,-2.820773124694824,0.0,1500.0,0.0,32.542845,0.0,0.0,0.0,1584.0,1500.0,3.295747592227148e-05,0.0,0.008028514559173916,0.0,0.0,1.0,0.2443002164363861,-1.7230175991704645e-05,0.0,32.561921999999996,1940.0,0.0,1559.0,5.0,1500.0,,,,,,,,,,,,,,,,
27.700021999999997,-9.295297622680664,0.0,0.0,0.0,0.0,-0.000103739430243035,0.06252120435237885,1482.0,0.0,0.0,1019.0,0.0,-0.05305800926062762,0.0,5.0,-2.7922353744506836,0.0,1500.0,0.0,32.622825999999996,0.0,0.0,0.0,1584.0,1500.0,2.502335191035003e-05,0.0,0.008028514559173916,0.0,0.0,1.0,0.13808274269104004,2.3320285669217838e-05,0.0,32.661944999999996,1940.0,0.0,1559.0,5.0,1501.0,,,,,,,,,,,,,,,,
27.799931,-9.195830345153809,0.0,0.0,0.0,0.0,-6.954580886208943e-05,0.06373172253370285,1483.0,0.0,0.0,1019.0,0.0,-0.05305800926062762,0.0,5.0,-2.7778406143188477,0.0,1500.0,0.0,32.742239,0.0,0.0,0.0,1583.0,1500.0,5.058362320142043e-06,0.0,0.008028514559173916,0.0,0.0,1.0,0.24164478480815887,-9.709555527675255e-05,0.0,32.761854,1941.0,0.0,1559.0,5.0,1500.0,,,,,,,,,,,,,,,,
27.900021000000002,-9.206643104553223,0.0,0.0,0.0,0.0,2.6057330217792063e-05,0.06079333275556564,1482.0,0.0,0.0,1020.0,0.0,-0.05305800926062762,0.0,5.0,-2.775449752807617,0.0,1500.0,0.0,32.822185999999995,0.0,0.0,0.0,1584.0,1500.0,-6.832325736648386e-06,0.0,0.008028514559173916,0.0,0.0,1.0,0.20446866750717163,-3.544587925679826e-05,0.0,32.861944,1940.0,0.0,1559.0,5.0,1500.0,,,,,,,,,,,,,,,,
27.999907,-9.307281494140625,0.0,0.0,0.0,0.0,6.895636665866205e-05,0.05369684845209122,1482.0,0.0,0.0,1020.0,0.0,-0.05305800926062762,0.0,5.0,-2.8001108169555664,0.0,1500.0,0.0,32.942355,0.0,0.0,0.0,1584.0,1500.0,-1.8145623393604722e-05,0.0,0.008028514559173916,0.0,0.0,1.0,0.2097795456647873,-0.00013130689422110258,0.0,32.96183,1940.0,0.0,1559.0,5.0,1500.0,,,,,,,,,,,,,,,,
28.100014,-9.329244613647461,0.0,0.0,0.0,0.0,9.785598822167828e-05,0.03830893337726593,1482.0,0.0,0.0,1020.0,0.0,-0.05305800926062762,0.0,5.0,-2.8302464485168457,0.0,1500.0,0.0,33.022802999999996,0.0,0.0,0.0,1584.0,1500.0,-2.644250232524845e-05,0.0,0.008028514559173916,0.0,0.0,1.0,0.2177458554506302,5.8263788698442426e-05,0.0,33.061937,1940.0,0.0,1559.0,5.0,1500.0,,,,,,,,,,,,,,,,
28.200020000000002,-9.450366020202637,0.0,0.0,0.0,0.0,7.303081294713297e-05,0.051029227674007416,1482.0,0.0,0.0,1020.0,0.0,-0.05305800926062762,0.0,5.0,-2.8274102210998535,0.0,1500.0,0.0,33.142368999999995,0.0,0.0,0.0,1584.0,1500.0,-2.7833170537875802e-05,0.0,0.008028514559173916,0.0,0.0,1.0,0.22305673360824585,-3.165281103805971e-05,0.0,33.161943,1940.0,0.0,1559.0,5.0,1500.0,,,,,,,,,,,,,,,,
28.300024999999998,-9.467949867248535,0.0,0.0,0.0,0.0,-1.4934552242776956e-07,0.05489814281463623,1483.0,0.0,0.0,1019.0,0.0,-0.05305800926062762,0.0,5.0,-2.8378686904907227,0.0,1500.0,0.0,33.222349,0.0,0.0,0.0,1583.0,1501.0,-5.671930480893346e-06,0.0,0.008028514559173916,0.0,0.0,1.0,0.14073817431926727,-2.3864273788823997e-05,0.0,33.261948,1940.0,0.0,1559.0,5.0,1500.0,,,,,,,,,,,,,,,,
28.399934000000002,-9.44436264038086,0.0,0.0,0.0,0.0,-2.0839956829756345e-05,0.057363361120224,1483.0,0.0,0.0,1019.0,0.0,-0.05305800926062762,0.0,5.0,-2.8311893939971924,0.0,1500.0,0.0,33.342189,0.0,0.0,0.0,1584.0,1500.0,7.20323083712825e-06,0.0,0.008028514559173916,0.0,0.0,1.0,0.1938469111919403,-2.1850396378936837e-05,0.0,33.361857,1940.0,0.0,1559.0,5.0,1500.0,,,,,,,,,,,,,,,,
28.499926000000002,-9.42838191986084,0.0,0.0,0.0,0.0,-4.728562474718187e-05,0.05635751783847809,1482.0,0.0,0.0,1020.0,0.0,-0.05305800926062762,0.0,5.0,-2.8149266242980957,0.0,1500.0,0.0,33.422382999999996,0.0,0.0,0.0,1584.0,1500.0,1.5687789967357957e-05,0.0,0.008028514559173916,0.0,0.0,1.0,0.15401536226272583,5.676695936536559e-05,0.0,33.461849,1940.0,0.0,1559.0,5.0,1500.0,,,,,,,,,,,,,,,,
28.599997000000002,-9.376460075378418,0.0,0.0,0.0,0.0,-6.365712878127666e-05,0.05292002856731415,1482.0,0.0,0.0,1020.0,0.0,-0.05305800926062762,0.0,5.0,-2.7943484783172607,0.0,1500.0,0.0,33.542819,0.0,0.0,0.0,1584.0,1500.0,-3.155815515875446e-06,0.0,0.008028514559173916,0.0,0.0,1.0,0.35051771998405457,8.893371587480918e-05,0.0,33.56192,1940.0,0.0,1559.0,5.0,1500.0,,,,,,,,,,,,,,,,
28.700015,-9.2154541015625,0.0,0.0,0.0,0.0,8.957651598334716e-06,0.05903773754835129,1482.0,0.0,0.0,1020.0,0.0,-0.05305800926062762,0.0,5.0,-2.820383310317993,0.0,1500.0,0.0,33.622802,0.0,0.0,0.0,1584.0,1500.0,-1.7356933779611812e-06,0.0,0.008028514559173916,0.0,0.0,1.0,0.3292742073535919,0.0006286714245295294,0.0,33.661938,1940.0,0.0,1559.0,5.0,1500.0,,,,,,,,,,,,,,,,
28.799892999999997,-9.184623718261719,0.0,0.0,0.0,0.0,0.00016209129067351063,0.07447874546051025,1483.0,0.0,0.0,1020.0,0.0,-0.05305800926062762,0.0,5.0,-2.7498323917388916,0.0,1500.0,0.0,33.742153,0.0,0.0,0.0,1583.0,1500.0,-2.1524372893988158e-05,0.0,0.008028514559173916,0.0,0.0,1.0,0.3106861412525177,0.0038806595122198887,0.0,33.761815999999996,1919.0,0.0,1559.0,5.0,1500.0,,,,,,,,,,,,,,,,
28.899907,-7.074742794036865,0.0,0.0,0.0,0.0,0.00044598110947476435,0.14370357990264893,1483.0,0.0,0.0,1020.0,0.0,-0.05305800926062762,0.0,5.0,-3.3774046897888184,0.0,1500.0,0.0,33.822365999999995,0.0,0.0,0.0,1584.0,1500.0,-0.00011026855554064427,0.0,0.008028514559173916,0.0,0.0,1.0,0.24961109459400177,0.01046318021440653,0.0,33.86183,1903.0,0.0,1559.0,5.0,1500.0,,,,,,,,,,,,,,,,
29.000016000000002,-9.293191909790039,0.0,0.0,0.0,0.0,0.0004459708690482095,-0.18195392191410065,1483.0,0.0,0.0,1019.0,0.0,-0.05305800926062762,0.0,5.0,-2.0902016162872314,0.0,1500.0,0.0,33.942347,0.0,0.0,0.0,1584.0,1500.0,-8.912087186108341e-05,0.0,0.008028514559173916,0.0,0.0,1.0,0.3027198314666748,0.007394949721782988,0.0,33.961939,1824.0,0.0,1559.0,5.0,1500.0,,,,,,,,,,,,,,,,
29.099984,-9.551277160644531,0.0,0.0,0.0,0.0,0.00038321935564024183,-0.06821313500404358,1482.0,0.0,0.0,1019.0,0.0,-0.05305800926062762,0.0,5.0,-1.9637092351913452,0.0,1500.0,0.0,34.022767,0.0,0.0,0.0,1585.0,1500.0,-6.98179603887691e-05,0.0,0.008028514559173916,0.0,0.0,1.0,0.11418379843235016,0.0052302902557259,0.0,34.061907,1785.0,0.0,1560.0,5.0,1500.0,,,,,,,,,,,,,,,,
29.200023,-9.712122917175293,0.0,0.0,0.0,0.0,0.00029087782086371575,0.061092764139175415,1483.0,0.0,0.0,1020.0,0.0,-0.05305800926062762,0.0,5.0,-1.8142480850219727,0.0,1500.0,0.0,34.142741,0.0,0.0,0.0,1585.0,1500.0,-6.717239088859305e-05,0.0,0.008028514559173916,0.0,0.0,1.0,0.13808274269104004,0.0015874113675154941,0.0,34.161946,1743.0,0.0,1559.0,5.0,1500.0,,,,,,,,,,,,,,,,
29.299996,-9.792739868164062,0.0,0.0,0.0,0.0,0.00022404713919281022,-0.03682282567024231,1483.0,0.0,0.0,1020.0,0.0,-0.05305800926062762,0.0,5.0,-1.2273821830749512,0.0,1500.0,0.0,34.222350999999996,0.0,0.0,0.0,1586.0,1500.0,-8.947731997841952e-05,0.0,0.008028514559173916,0.0,0.0,1.0,0.19915778934955597,0.006989794494711367,0.0,34.261919,1699.0,0.0,1559.0,5.0,1500.0,,,,,,,,,,,,,,,,
29.399856999999997,-9.75959587097168,0.0,0.0,0.0,0.0,-0.00014414040809005503,0.10556180775165558,1484.0,0.0,0.0,1020.0,0.0,-0.05305800926062762,0.0,5.0,-0.9347342252731323,0.0,1501.0,0.0,34.342357,0.0,0.0,0.0,1587.0,1500.0,-1.4969502270014447e-05,0.0,0.008028514559173916,0.0,0.0,1.0,0.17260341346263885,0.0013932437774337746,0.0,34.361779999999996,1646.0,0.0,1560.0,5.0,1500.0,,,,,,,,,,,,,,,,
29.49993,-9.88879108428955,0.0,0.0,0.0,0.0,-0.0003109526654425234,0.009924760088324547,1484.0,0.0,0.0,1020.0,0.0,-0.05305800926062762,0.0,5.0,-0.619712233543396,0.0,1500.0,0.0,34.422346,0.0,0.0,0.0,1587.0,1500.0,-7.5192236820382885e-06,0.0,0.008028514559173916,0.0,0.0,1.0,0.22571216523647308,0.000980143669838688,0.0,34.461853,1633.0,0.0,1560.0,5.0,1501.0,,,,,,,,,,,,,,,,
29.600023,-9.256542205810547,0.0,0.0,0.0,0.0,-0.00013711263091048222,0.029028840363025665,1483.0,0.0,0.0,1020.0,0.0,-0.05305800926062762,0.0,5.0,-0.5452508330345154,0.0,1500.0,0.0,34.542828,0.0,0.0,0.0,1588.0,1501.0,-4.618577042589817e-05,0.0,0.008028514559173916,0.0,0.0,1.0,0.16994798183441162,0.004938122238644143,0.0,34.561946,1619.0,0.0,1561.0,5.0,1500.0,,,,,,,,,,,,,,,,
29.700021999999997,-9.484868049621582,0.0,0.0,0.0,0.0,4.29458335647612e-05,0.030153177678585052,1484.0,0.0,0.0,1020.0,0.0,-0.05305800926062762,0.0,5.0,-0.12376554310321808,0.0,1500.0,0.0,34.62271,0.0,0.0,0.0,1590.0,1500.0,-5.223232781309318e-05,0.0,0.008028514559173916,0.0,0.0,1.0,0.19119147956371307,0.006015399507756967,0.0,34.661944999999996,1598.0,0.0,1560.0,5.0,1500.0,,,,,,,,,,,,,,,,
29.799996999999998,-9.231843948364258,0.0,0.0,0.0,0.0,0.0003096648424026992,-0.026713227853178978,1485.0,0.0,0.0,1019.0,0.0,-0.05305800926062762,0.0,5.0,0.04087943211197853,0.0,1500.0,0.0,34.742166,0.0,0.0,0.0,1592.0,1501.0,-4.617789505023812e-05,0.0,0.008028514559173916,0.0,0.0,1.0,0.2018132209777832,0.0051316326209060745,0.0,34.761919999999996,1563.0,0.0,1561.0,5.0,1500.0,,,,,,,,,,,,,,,,
29.899915999999997,-10.125826835632324,0.0,0.0,0.0,0.0,0.0004334199096789448,-0.10986275225877762,1484.0,0.0,0.0,1020.0,0.0,-0.05305800926062762,0.0,5.0,0.5388209819793701,0.0,1500.0,0.0,34.822375,0.0,0.0,0.0,1595.0,1500.0,-3.610604135837422e-05,0.0,0.008028514559173916,0.0,0.0,1.0,0.11418379843235016,0.004822026620319452,0.0,34.861838999999996,1527.0,0.0,1562.0,5.0,1500.0,,,,,,,,,,,,,,,,
29.999957000000002,-10.474775314331055,0.0,0.0,0.0,0.0,0.0003486159790326162,-0.06812828779220581,1485.0,0.0,0.0,1019.0,0.0,-0.05305800926062762,0.0,5.0,0.9190458059310913,0.0,1500.0,0.0,34.94235,0.0,0.0,0.0,1597.0,1500.0,-4.0876101129875354e-05,0.0,0.008028514559173916,0.0,0.0,1.0,0.18056973814964294,0.005265327468817255,0.0,34.96188,1490.0,0.0,1563.0,5.0,1500.0,,,,,,,,,,,,,,,,
30.099958,-9.685002326965332,0.0,0.0,0.0,0.0,0.00034743725717221465,-0.09044329822063446,1485.0,0.0,0.0,1020.0,0.0,-0.05305800926062762,0.0,5.0,0.7340888977050781,0.0,1500.0,0.0,35.022729999999996,0.0,0.0,0.0,1598.0,1500.0,-5.40267126516623e-06,0.0,0.008028514559173916,0.0,0.0,1.0,0.2097795456647873,0.0028092419777282144,0.0,35.061881,1483.0,0.0,1563.0,5.0,1500.0,,,,,,,,,,,,,,,,
30.200014000000003,-9.598796844482422,0.0,0.0,0.0,0.0,0.00020805012999602384,-0.08294601738452911,1487.0,0.0,0.0,1020.0,0.0,-0.05305800926062762,0.0,5.0,0.8978153467178345,0.0,1500.0,0.0,35.142378,0.0,0.0,0.0,1599.0,1500.0,-2.4265218997737814e-05,0.0,0.008028514559173916,0.0,0.0,1.0,0.14604905247688293,0.003141669240277079,0.0,35.161937,1462.0,0.0,1564.0,5.0,1500.0,,,,,,,,,,,,,,,,
30.300035,-10.045499801635742,0.0,0.0,0.0,0.0,-1.4553592628248129e-05,-0.0344734713435173,1488.0,0.0,0.0,1019.0,0.0,-0.05305800926062762,0.0,5.0,1.127103328704834,0.0,1500.0,0.0,35.222389,0.0,0.0,0.0,1600.0,1500.0,-1.160867148427137e-05,0.0,0.008028514559173916,0.0,0.0,1.0,0.17260341346263885,0.0004672318476056869,0.0,35.261958,1448.0,0.0,1566.0,5.0,1500.0,,,,,,,,,,,,,,,,
30.400267999999997,-10.07871150970459,0.0,0.0,0.0,0.0,-2.2443345522093137e-05,-0.11202757060527802,1490.0,0.0,0.0,1020.0,0.0,-0.05305800926062762,0.0,5.0,1.233439564704895,0.0,1500.0,0.0,35.342165,0.0,0.0,0.0,1601.0,1500.0,-2.2621591930898512e-05,0.0,0.008028514559173916,0.0,0.0,1.0,0.19650235772132874,0.0015478128408715655,0.0,35.362190999999996,1436.0,0.0,1566.0,5.0,1500.0,,,,,,,,,,,,,,,,
30.500017,-10.017147064208984,0.0,0.0,0.0,0.0,-9.393193803907867e-05,-0.05599438399076462,1490.0,0.0,0.0,1020.0,0.0,-0.05305800926062762,0.0,5.0,1.2868746519088745,0.0,1500.0,0.0,35.422368,0.0,0.0,0.0,1602.0,1501.0,-3.0865049970681e-05,0.0,0.008028514559173916,0.0,0.0,1.0,0.1672925502061844,0.00043796548873484373,0.0,35.46194,1428.0,0.0,1567.0,5.0,1500.0,,,,,,,,,,,,,,,,
30.599930999999998,-9.473311424255371,0.0,0.0,0.0,0.0,-5.1956356444762095e-05,-0.0677884966135025,1491.0,0.0,0.0,1020.0,0.0,-0.05305800926062762,0.0,5.0,1.1551446914672852,0.0,1500.0,0.0,35.542833,0.0,0.0,0.0,1602.0,1500.0,-3.64407773332172e-05,0.0,0.008028514559173916,0.0,0.0,1.0,0.26554372906684875,0.001013145151149516,0.0,35.561854,1422.0,0.0,1567.0,5.0,1500.0,,,,,,,,,,,,,,,,
30.699928,-9.493212699890137,0.0,0.0,0.0,0.0,-5.937704091113542e-05,-0.07901164144277573,1491.0,0.0,0.0,1019.0,0.0,-0.05305800926062762,0.0,5.0,1.2474725246429443,0.0,1500.0,0.0,35.622904999999996,0.0,0.0,0.0,1602.0,1500.0,-9.133762553110495e-06,0.0,0.008028514559173916,0.0,0.0,1.0,0.18056973814964294,0.00021757327156198393,0.0,35.661851,1420.0,0.0,1568.0,5.0,1500.0,,,,,,,,,,,,,,,,
30.800010999999998,-9.626646995544434,0.0,0.0,0.0,0.0,1.911156788303817e-05,-0.06023842841386795,1490.0,0.0,0.0,1019.0,0.0,-0.05305800926062762,0.0,5.0,1.320582628250122,0.0,1500.0,0.0,35.742384,0.0,0.0,0.0,1603.0,1500.0,-1.6954722740193296e-05,0.0,0.008028514559173916,0.0,0.0,1.0,0.10621748864650726,0.00018054338524556851,0.0,35.761934,1417.0,0.0,1569.0,5.0,1500.0,,,,,,,,,,,,,,,,
30.899923,-9.61898136138916,0.0,0.0,0.0,0.0,9.064349325263e-05,-0.07952893525362015,1491.0,0.0,0.0,1020.0,0.0,-0.05305800926062762,0.0,5.0,1.3133690357208252,0.0,1500.0,0.0,35.822362,0.0,0.0,0.0,1602.0,1500.0,9.278056055577545e-06,0.0,0.008028514559173916,0.0,0.0,1.0,0.042486995458602905,0.0002040152718962424,0.0,35.861846,1416.0,0.0,1568.0,5.0,1500.0,,,,,,,,,,,,,,,,
31.000009999999996,-9.728596687316895,0.0,0.0,0.0,0.0,0.00010478629442055858,-0.10761960595846176,1491.0,0.0,0.0,1019.0,0.0,-0.05305800926062762,0.0,5.0,1.3668208122253418,0.0,1500.0,0.0,35.942344999999996,0.0,0.0,0.0,1603.0,1500.0,3.3038788261637746e-06,0.0,0.008028514559173916,0.0,0.0,1.0,0.17525885999202728,0.00015814163942452387,0.0,35.961932999999995,1412.0,0.0,1568.0,5.0,1500.0,,,,,,,,,,,,,,,,
31.099929000000003,-9.89455795288086,0.0,0.0,0.0,0.0,9.868365850699166e-05,-0.10747063159942627,1490.0,0.0,0.0,1019.0,0.0,-0.05305800926062762,0.0,5.0,1.4421989917755127,0.0,1500.0,0.0,36.022693,0.0,0.0,0.0,1604.0,1500.0,3.422954008345291e-07,0.0,0.008028514559173916,0.0,0.0,1.0,0.07435224205255508,0.0008857779115705254,0.0,36.061852,1408.0,0.0,1569.0,5.0,1500.0,,,,,,,,,,,,,,,,
31.199920999999996,-9.995261192321777,0.0,0.0,0.0,0.0,1.439695169082593e-05,-0.08480314165353775,1491.0,0.0,0.0,1020.0,0.0,-0.05305800926062762,0.0,5.0,1.502570390701294,0.0,1500.0,0.0,36.142368999999995,0.0,0.0,0.0,1604.0,1500.0,-8.729778741436201e-06,0.0,0.008028514559173916,0.0,0.0,1.0,0.07700768113136292,0.0006926079666002848,0.0,36.161843999999995,1400.0,0.0,1569.0,5.0,1500.0,,,,,,,,,,,,,,,,
31.300004,-9.754300117492676,0.0,0.0,0.0,0.0,2.554224488940476e-05,-0.10556711256504059,1491.0,0.0,0.0,1019.0,0.0,-0.05305800926062762,0.0,5.0,1.5216509103775024,0.0,1500.0,0.0,36.222311999999995,0.0,0.0,0.0,1605.0,1500.0,-4.1644320049911855e-05,0.0,0.008028514559173916,0.0,0.0,1.0,0.23367847502231598,0.002208409169042745,0.0,36.261927,1395.0,0.0,1569.0,5.0,1500.0,,,,,,,,,,,,,,,,
