time_index,tx_controls_3,wind_x,gps_sat_count_0,tx_controls_6,servos_6,mode_1,acceleration_x,acceleration_y,tx_controls_7,tx_controls_0,tx_controls_4,global_position_longitude,servos_2,magnetometer_1,axis_rate_yaw,axis_rate_pitch,servos_3,velocity_z,altitude_baro,mode_2,servos_7,velocity_x,rpm_0,tx_controls_1,attitude_yaw,time_actual,wind_y,magnetometer_2,mode_0,global_position_latitude,rpm_1,tx_controls_5,attitude_roll,magnetometer_0,servos_5,position_y,acceleration_z,airspeed_0,tx_controls_2,position_x,position_z,time_flight,servos_1,velocity_y,altitude_gps,servos_4,servos_0,axis_rate_roll,attitude_pitch,current_0,battery_0,current_1,current_3,battery_1,current_2,airspeed_1
0.0,1602.0,0.0,16.0,0.0,0.0,1.0,1.6252994537353516,0.37633216381073,0.0,1498.0,0.0,-2.7912426,0.0,-80.0,2.8195510964142288e-05,2.7536029525839317e-06,0.0,0.0,0.3332323729991913,3.0,0.0,0.0,438.1609230041504,1568.0,0.0,7.398349,0.0,427.0,1.0,51.4594472,-14.0,0.0,-0.009948376736367679,-224.0,0.0,0.0,-9.663856506347656,0.0,0.0,0.0,0.0,7.41763,0.0,0.0,14.780000000000001,0.0,0.0,-0.0002718640145131553,-0.04886921905584123,,,,,,,
0.09997999999999951,1602.0,0.0,16.0,0.0,0.0,1.0,1.6142414808273315,0.49124982953071594,0.0,1498.0,0.0,-2.7912426,0.0,-82.0,-4.327339616143911e-06,1.532537639518751e-05,0.0,0.0,0.31411248445510864,3.0,0.0,0.0,438.1609230041504,1568.0,0.0,7.477779,0.0,427.0,1.0,51.4594472,-14.0,0.0,-0.009948376736367679,-224.0,0.0,0.0,-9.65213394165039,0.0,0.0,0.0,0.0,7.5176099999999995,0.0,0.0,14.780000000000001,0.0,0.0,0.00020058487529216884,-0.04886921905584123,,,,,,,
0.1999740000000001,1602.0,0.0,16.0,0.0,0.0,1.0,1.6039586067199707,0.28164055943489075,0.0,1498.0,0.0,-2.7912425,0.0,-79.0,1.781184441100526e-05,-9.451645508497252e-06,0.0,0.0,0.30318683385849,3.0,0.0,0.0,438.1609230041504,1568.0,0.0,7.598528,0.0,426.0,1.0,51.4594473,-14.0,0.0,-0.009948376736367679,-223.0,0.0,0.0,-9.695050239562988,0.0,0.0,0.0,0.0,7.617604,0.0,0.0,14.88,0.0,0.0,-8.759220374147586e-05,-0.04886921905584123,,,,,,,
0.3000239999999996,1602.0,0.0,16.0,0.0,0.0,1.0,1.6343055963516235,0.5210782289505005,0.0,1498.0,0.0,-2.7912425,0.0,-80.0,-1.0012568936701595e-05,3.6558557731307034e-07,0.0,0.0,0.2895297706127167,3.0,0.0,0.0,438.1609230041504,1568.0,0.0,7.677667,0.0,426.0,1.0,51.4594473,-14.0,0.0,-0.009948376736367679,-220.0,0.0,0.0,-9.641749382019043,0.0,0.0,0.0,0.0,7.717654,0.0,0.0,14.88,0.0,0.0,0.00016494079501759787,-0.04886921905584123,,,,,,,
0.39998999999999985,1602.0,0.0,16.0,0.0,0.0,1.0,1.6080412864685059,0.24178627133369446,0.0,1498.0,0.0,-2.7912426,0.0,-79.0,7.352047702614701e-06,-2.7269679383667744e-06,0.0,0.0,0.2430957406759262,3.0,0.0,0.0,438.1609230041504,1568.0,0.0,7.798194,0.0,426.0,1.0,51.4594479,-14.0,0.0,-0.009948376736367679,-220.0,0.0,0.0,-9.701918601989746,0.0,0.0,0.0,0.0,7.81762,0.0,0.0,14.950000000000001,0.0,0.0,-0.00015415185545622918,-0.04886921905584123,,,,,,,
0.49997699999999945,1602.0,0.0,16.0,0.0,0.0,1.0,1.6180176734924316,0.5359107255935669,0.0,1498.0,0.0,-2.7912426,0.0,-79.0,-2.9692485065154054e-06,-3.972417403637707e-06,0.0,0.0,0.3086496591567993,3.0,0.0,0.0,437.47084045410156,1568.0,0.0,7.878422,0.0,425.0,1.0,51.4594479,-14.0,0.0,-0.009948376736367679,-220.0,0.0,0.0,-9.669862747192383,0.0,0.0,0.0,0.0,7.917606999999999,0.0,0.0,14.950000000000001,0.0,0.0,1.3979650245053643e-05,-0.04886921905584123,,,,,,,
0.6000079999999999,1602.0,0.0,16.0,0.0,0.0,1.0,1.616648554801941,0.27548110485076904,0.0,1498.0,0.0,-2.7912425,0.0,-79.0,1.4751020534452561e-05,-2.281171235811394e-05,0.0,0.0,0.21305020153522491,3.0,0.0,0.0,437.47084045410156,1568.0,0.0,7.998234,0.0,424.0,1.0,51.459448599999995,-14.0,0.0,-0.009948376736367679,-221.0,0.0,0.0,-9.696109771728516,0.0,0.0,0.0,0.0,8.017638,0.0,0.0,14.96,0.0,0.0,5.615899092992881e-05,-0.04886921905584123,,,,,,,
0.7001540000000004,1602.0,0.0,16.0,0.0,0.0,1.0,1.6144359111785889,0.5019928812980652,0.0,1498.0,0.0,-2.7912425,0.0,-81.0,4.20463279062638e-06,-6.594693489105093e-06,0.0,0.0,0.3386951982975006,3.0,0.0,0.0,437.33689880371094,1568.0,0.0,8.077698,0.0,428.0,1.0,51.459448599999995,-14.0,0.0,-0.009948376736367679,-223.0,0.0,0.0,-9.659271240234375,0.0,0.0,0.0,0.0,8.117784,0.0,0.0,14.96,0.0,0.0,-8.186044194297116e-05,-0.04886921905584123,,,,,,,
0.7999619999999998,1602.0,0.0,16.0,0.0,0.0,1.0,1.628730297088623,0.3677458167076111,0.0,1498.0,0.0,-2.7912426,0.0,-81.0,-5.85985246732854e-06,6.7174638093309256e-06,0.0,0.0,0.3332323729991913,3.0,0.0,0.0,437.47084045410156,1568.0,0.0,8.198209,0.0,425.0,1.0,51.459449299999996,-14.0,0.0,-0.009948376736367679,-224.0,0.0,0.0,-9.672602653503418,0.0,0.0,0.0,0.0,8.217592,0.0,0.0,14.950000000000001,0.0,0.0,0.00015112018530198256,-0.04886921905584123,,,,,,,
0.8999699999999988,1602.0,0.0,16.0,0.0,0.0,1.0,1.6082981824874878,0.4504486918449402,0.0,1498.0,0.0,-2.7912426,0.0,-80.0,1.573926131769551e-05,1.0225649050438854e-05,0.0,0.0,0.2813355326652527,3.0,0.0,0.0,437.33689880371094,1568.0,0.0,8.277652999999999,0.0,425.0,1.0,51.459449299999996,-14.0,0.0,-0.009948376736367679,-224.0,0.0,0.0,-9.660016059875488,0.0,0.0,0.0,0.0,8.317599999999999,0.0,0.0,14.950000000000001,0.0,0.0,-6.717242746154503e-05,-0.04886921905584123,,,,,,,
0.9999999999999991,1602.0,0.0,16.0,0.0,0.0,1.0,1.6221143007278442,0.37369924783706665,0.0,1498.0,0.0,-2.7912426999999997,0.0,-80.0,-2.1484963506397232e-05,-8.225106545210348e-06,0.0,0.0,0.35781508684158325,3.0,0.0,0.0,437.33689880371094,1568.0,0.0,8.398472,0.0,426.0,1.0,51.4594496,-14.0,0.0,-0.009948376736367679,-224.0,0.0,0.0,-9.67529582977295,0.0,0.0,0.0,0.0,8.417629999999999,0.0,0.0,14.92,0.0,0.0,0.00012680812041641754,-0.04886921905584123,,,,,,,
1.0999969999999992,1602.0,0.0,16.0,0.0,0.0,1.0,1.624102234840393,0.425758957862854,0.0,1498.0,0.0,-2.7912426999999997,0.0,-80.0,2.0471547325291562e-05,-1.8785635830469446e-05,0.0,0.0,0.294992595911026,3.0,0.0,0.0,434.8708610534668,1568.0,0.0,8.477855,0.0,426.0,1.0,51.4594496,-14.0,0.0,-0.009948376736367679,-224.0,0.0,0.0,-9.68655776977539,0.0,0.0,0.0,0.0,8.517627,0.0,0.0,14.92,0.0,0.0,-0.00017893243611132484,-0.04886921905584123,,,,,,,
1.1999699999999995,1602.0,0.0,16.0,0.0,0.0,1.0,1.6171557903289795,0.3864683210849762,0.0,1498.0,0.0,-2.7912428,0.0,-79.0,-1.1804678124925182e-05,-2.5652394493450914e-05,0.0,0.0,0.3550836741924286,3.0,0.0,0.0,434.8708610534668,1568.0,0.0,8.598602,0.0,424.0,1.0,51.459449799999994,-14.0,0.0,-0.009948376736367679,-220.0,0.0,0.0,-9.667937278747559,0.0,0.0,0.0,0.0,8.6176,0.0,0.0,14.83,0.0,0.0,0.00012085605128249786,-0.04886921905584123,,,,,,,
1.2999710000000002,1602.0,0.0,16.0,0.0,0.0,1.0,1.6211862564086914,0.4223001003265381,0.0,1498.0,0.0,-2.7912428,0.0,-79.0,9.733582585641517e-07,-8.195307716667941e-06,0.0,0.0,0.44522029161453247,3.0,0.0,0.0,434.5936851501465,1568.0,0.0,8.677776999999999,0.0,424.0,1.0,51.459449799999994,-14.0,0.0,-0.009948376736367679,-219.0,0.0,0.0,-9.671744346618652,0.0,0.0,0.0,0.0,8.717601,0.0,0.0,14.83,0.0,0.0,-0.0001075092969874025,-0.04886921905584123,,,,,,,
1.3999789999999992,1602.0,0.0,16.0,0.0,0.0,1.0,1.6002867221832275,0.39237791299819946,0.0,1498.0,0.0,-2.7912429999999997,0.0,-79.0,-1.7738422178071374e-05,1.2680151036330451e-06,0.0,0.0,0.39332345128059387,3.0,0.0,0.0,434.5936851501465,1568.0,0.0,8.798098,0.0,424.0,1.0,51.459449899999996,-14.0,0.0,-0.009948376736367679,-219.0,0.0,0.0,-9.670626640319824,0.0,0.0,0.0,0.0,8.817609,0.0,0.0,14.74,0.0,0.0,0.0001317583344857191,-0.04886921905584123,,,,,,,
1.5000080000000002,1602.0,0.0,16.0,0.0,0.0,1.0,1.6161766052246094,0.40482428669929504,0.0,1498.0,0.0,-2.7912429999999997,0.0,-79.0,1.367476897409637e-05,-1.224586272425684e-05,0.0,0.0,0.5654024481773376,3.0,0.0,0.0,433.10668182373047,1568.0,0.0,8.878235,0.0,423.0,1.0,51.459449899999996,-14.0,0.0,-0.009948376736367679,-219.0,0.0,0.0,-9.677003860473633,0.0,0.0,0.0,0.0,8.917638,0.0,0.0,14.74,0.0,0.0,-8.04072766508991e-05,-0.04886921905584123,,,,,,,
1.6000039999999993,1602.0,0.0,16.0,0.0,0.0,1.0,1.6307345628738403,0.40943706035614014,0.0,1498.0,0.0,-2.7912432,0.0,-79.0,-1.5646087658860848e-05,-4.229608815105035e-06,0.0,0.0,0.4042491018772125,3.0,0.0,0.0,434.5936851501465,1568.0,0.0,8.998241,0.0,425.0,1.0,51.459449899999996,-14.0,0.0,-0.009948376736367679,-220.0,0.0,0.0,-9.681624412536621,0.0,0.0,0.0,0.0,9.017634,0.0,0.0,14.64,0.0,0.0,0.0001045952129374383,-0.04886921905584123,,,,,,,
1.699967,1602.0,0.0,16.0,0.0,0.0,1.0,1.6136401891708374,0.4166639447212219,0.0,1498.0,0.0,-2.7912432,0.0,-80.0,-2.4277470936651675e-06,6.760207939001846e-06,0.0,0.0,0.3632779121398926,3.0,0.0,0.0,434.5936851501465,1568.0,0.0,9.077641999999999,0.0,425.0,1.0,51.459449899999996,-14.0,0.0,-0.009948376736367679,-223.0,0.0,0.0,-9.653005599975586,0.0,0.0,0.0,0.0,9.117597,0.0,0.0,14.64,0.0,0.0,3.053530620378352e-05,-0.04886921905584123,,,,,,,
1.799988,1602.0,0.0,16.0,0.0,0.0,1.0,1.615993618965149,0.3633423447608948,0.0,1498.0,0.0,-2.7912434999999998,0.0,-80.0,-1.3041063339617821e-05,4.353442036747835e-06,0.0,0.0,0.4643401801586151,3.0,0.0,0.0,441.28681564331055,1568.0,0.0,9.198207,0.0,427.0,1.0,51.459449799999994,-14.0,0.0,-0.009948376736367679,-223.0,0.0,0.0,-9.657929420471191,0.0,0.0,0.0,0.0,9.217618,0.0,0.0,14.55,0.0,0.0,3.645275700682187e-05,-0.04886921905584123,,,,,,,
1.8999630000000005,1602.0,0.0,16.0,0.0,0.0,1.0,1.621124029159546,0.4136822521686554,0.0,1498.0,0.0,-2.7912434999999998,0.0,-80.0,9.684946401019048e-06,-1.0560433789217812e-05,0.0,0.0,0.4889228940010071,3.0,0.0,0.0,441.28681564331055,1568.0,0.0,9.277667,0.0,427.0,1.0,51.459449799999994,-14.0,0.0,-0.009948376736367679,-223.0,0.0,0.0,-9.656962394714355,0.0,0.0,0.0,0.0,9.317593,0.0,0.0,14.55,0.0,0.0,9.706660575342839e-06,-0.04886921905584123,,,,,,,
1.9999820000000001,1602.0,0.0,16.0,0.0,0.0,1.0,1.6157305240631104,0.3911113440990448,0.0,1498.0,0.0,-2.7912436,0.0,-80.0,-3.058080651175239e-06,-5.958930626077575e-06,0.0,0.0,0.33596378564834595,3.0,0.0,0.0,441.28681564331055,1568.0,0.0,9.398507,0.0,427.0,1.0,51.459449899999996,-14.0,0.0,-0.009948376736367679,-223.0,0.0,0.0,-9.655176162719727,0.0,0.0,0.0,0.0,9.417612,0.0,0.0,14.47,0.0,0.0,4.939473812402933e-05,-0.04886921905584123,,,,,,,
2.099977,1602.0,0.0,16.0,0.0,0.0,1.0,1.6229357719421387,0.41083425283432007,0.0,1498.0,0.0,-2.7912436,0.0,-80.0,1.0340157693199325e-06,-1.660747068844992e-05,0.0,0.0,0.4643401801586151,3.0,0.0,0.0,434.5936851501465,1568.0,0.0,9.477647,0.0,427.0,1.0,51.459449899999996,-14.0,0.0,-0.009948376736367679,-225.0,0.0,0.0,-9.665834426879883,0.0,0.0,0.0,0.0,9.517607,0.0,0.0,14.47,0.0,0.0,-1.4059597702170259e-05,-0.04886921905584123,,,,,,,
2.199972999999999,1602.0,0.0,16.0,0.0,0.0,1.0,1.6249804496765137,0.4190765917301178,0.0,1498.0,0.0,-2.7912437,0.0,-79.0,-7.631798275983895e-06,2.8229020931395503e-06,0.0,0.0,0.4807286560535431,3.0,0.0,0.0,441.28681564331055,1568.0,0.0,9.598559999999999,0.0,426.0,1.0,51.459449899999996,-14.0,0.0,-0.009948376736367679,-220.0,0.0,0.0,-9.667547225952148,0.0,0.0,0.0,0.0,9.617602999999999,0.0,0.0,14.41,0.0,0.0,5.0147815841945405e-05,-0.04886921905584123,,,,,,,
2.2999839999999994,1602.0,0.0,16.0,0.0,0.0,1.0,1.6102516651153564,0.37137937545776367,0.0,1498.0,0.0,-2.7912437,0.0,-79.0,-3.2256276936741405e-06,-4.283718243583096e-06,0.0,0.0,0.3687407374382019,3.0,0.0,0.0,434.5936851501465,1568.0,0.0,9.677779,0.0,424.0,1.0,51.459449899999996,-14.0,0.0,-0.009948376736367679,-219.0,0.0,0.0,-9.6641263961792,0.0,0.0,0.0,0.0,9.717614,0.0,0.0,14.41,0.0,0.0,2.001359504339164e-05,-0.04886921905584123,,,,,,,
2.399997,1602.0,0.0,16.0,0.0,0.0,11.0,1.6178948879241943,0.4309759736061096,0.0,1498.0,0.0,-2.7912437999999997,0.0,-79.0,-8.466460090617775e-06,-1.758119264470322e-07,0.0,0.0,0.42336899042129517,3.0,0.0,0.0,437.9626007080078,1568.0,0.0,9.7982,0.0,424.0,11.0,51.45945,-14.0,0.0,-0.009948376736367679,-218.0,0.0,0.0,-9.662125587463379,0.0,0.0,0.0,0.0,9.817627,0.0,0.0,14.35,0.0,0.0,9.387714362968746e-05,-0.04886921905584123,,,,,,,
2.500013,1602.0,0.0,16.0,0.0,0.0,11.0,1.618067979812622,0.3682258725166321,0.0,1498.0,0.0,-2.7912437999999997,0.0,-78.0,3.290939874506089e-06,-1.8540840871872073e-06,0.0,0.0,0.34962084889411926,3.0,0.0,0.0,437.9626007080078,1568.0,0.0,9.878449999999999,0.0,425.0,11.0,51.45945,-14.0,0.0,-0.009948376736367679,-219.0,0.0,0.0,-9.679052352905273,0.0,0.0,0.0,0.0,9.917643,0.0,0.0,14.35,0.0,0.0,-1.8809609400493435e-05,-0.04886921905584123,,,,,,,
2.600328,1602.0,0.0,16.0,0.0,0.0,11.0,1.613652229309082,0.409408301115036,0.0,1498.0,0.0,-2.7912439,0.0,-79.0,5.306877052730551e-06,-1.1253765526410492e-05,0.0,0.0,0.3769349753856659,3.0,0.0,0.0,454.63502502441406,1568.0,0.0,9.998362,0.0,423.0,11.0,51.4594502,-14.0,0.0,-0.009948376736367679,-219.0,0.0,0.0,-9.672401428222656,0.0,0.0,0.0,0.0,10.017958,0.0,0.0,14.3,0.0,0.0,-2.755877993380259e-05,-0.04886921905584123,,,,,,,
2.7000260000000003,1602.0,0.0,16.0,0.0,0.0,11.0,1.6175161600112915,0.4004122316837311,0.0,1498.0,0.0,-2.7912439,0.0,-80.0,-6.975782632838856e-07,-1.2531864224668902e-05,0.0,0.0,0.20212455093860626,3.0,0.0,0.0,437.9626007080078,1568.0,0.0,10.077721,0.0,426.0,11.0,51.4594502,-14.0,0.0,-0.009948376736367679,-223.0,0.0,0.0,-9.66576099395752,0.0,0.0,0.0,0.0,10.117656,0.0,0.0,14.3,0.0,0.0,6.498790878503402e-05,-0.04886921905584123,,,,,,,
2.799986999999999,1602.0,0.0,16.0,0.0,0.0,11.0,1.6298354864120483,0.3930607736110687,0.0,1498.0,0.0,-2.7912439,0.0,-80.0,-9.500041683122342e-06,2.7762731032359085e-07,0.0,0.0,0.39605486392974854,3.0,0.0,0.0,437.9626007080078,1568.0,0.0,10.19822,0.0,426.0,11.0,51.459450499999996,-14.0,0.0,-0.009948376736367679,-223.0,0.0,0.0,-9.676833152770996,0.0,0.0,0.0,0.0,10.217616999999999,0.0,0.0,14.26,0.0,0.0,-2.482761143951342e-05,-0.04886921905584123,,,,,,,
2.900007999999999,1602.0,0.0,16.0,0.0,0.0,11.0,1.618438720703125,0.3890857398509979,0.0,1498.0,0.0,-2.7912439,0.0,-80.0,-7.295742119165907e-06,-8.329586325784009e-06,0.0,0.0,0.39332345128059387,3.0,0.0,0.0,434.5936851501465,1568.0,0.0,10.277719,0.0,427.0,11.0,51.459450499999996,-14.0,0.0,-0.009948376736367679,-224.0,0.0,0.0,-9.66873836517334,0.0,0.0,0.0,0.0,10.317637999999999,0.0,0.0,14.26,0.0,0.0,4.764374709298647e-05,-0.04886921905584123,,,,,,,
3.000006,1602.0,0.0,16.0,0.0,0.0,11.0,1.6187198162078857,0.41984039545059204,0.0,1498.0,0.0,-2.7912439,0.0,-80.0,7.249717090927629e-06,-9.649824176132644e-06,0.0,0.0,0.3905920386314392,3.0,0.0,0.0,437.9626007080078,1568.0,0.0,10.398405,0.0,427.0,11.0,51.4594508,-14.0,0.0,-0.009948376736367679,-224.0,0.0,0.0,-9.684803009033203,0.0,0.0,0.0,0.0,10.417636,0.0,0.0,14.23,0.0,0.0,-4.316408468754254e-05,-0.04886921905584123,,,,,,,
3.10001,1602.0,0.0,16.0,0.0,0.0,11.0,1.6145389080047607,0.3830758333206177,0.0,1498.0,0.0,-2.7912439,0.0,-80.0,6.006600421239695e-06,4.117013140916273e-06,0.0,0.0,0.3168438971042633,3.0,0.0,0.0,437.9626007080078,1568.0,0.0,10.477782,0.0,426.0,11.0,51.4594508,-14.0,0.0,-0.009948376736367679,-224.0,0.0,0.0,-9.67136001586914,0.0,0.0,0.0,0.0,10.51764,0.0,0.0,14.23,0.0,0.0,6.129502404092661e-05,-0.04886921905584123,,,,,,,
3.200003999999999,1602.0,0.0,16.0,0.0,0.0,11.0,1.6066431999206543,0.39649510383605957,0.0,1498.0,0.0,-2.791244,0.0,-79.0,1.3231473302703104e-05,-9.297352351409212e-06,0.0,0.0,0.35781508684158325,3.0,0.0,0.0,476.6141128540039,1568.0,0.0,10.598564999999999,0.0,425.0,11.0,51.4594512,-14.0,0.0,-0.009948376736367679,-220.0,0.0,0.0,-9.664525032043457,0.0,0.0,0.0,0.0,10.617633999999999,0.0,0.0,14.19,0.0,0.0,-3.059697429631662e-05,-0.04886921905584123,,,,,,,
3.2999859999999996,1602.0,0.0,16.0,0.0,0.0,11.0,1.6231560707092285,0.4326245188713074,0.0,1498.0,0.0,-2.791244,0.0,-79.0,1.555512971136708e-05,3.6758705750815104e-07,0.0,0.0,0.37147215008735657,3.0,0.0,0.0,445.67917251586914,1568.0,0.0,10.677655999999999,0.0,424.0,11.0,51.4594512,-14.0,0.0,-0.009948376736367679,-220.0,0.0,0.0,-9.67697525024414,0.0,0.0,0.0,0.0,10.717616,0.0,0.0,14.19,0.0,0.0,-5.7539904323530386e-05,-0.04886921905584123,,,,,,,
3.4000199999999987,1602.0,0.0,16.0,0.0,0.0,11.0,1.6129473447799683,0.38668951392173767,0.0,1498.0,0.0,-2.7912442,0.0,-79.0,-5.3391851921450325e-06,1.5605339548840096e-06,0.0,0.0,0.311381071805954,3.0,0.0,0.0,445.67917251586914,1568.0,0.0,10.798224,0.0,425.0,11.0,51.4594515,-14.0,0.0,-0.009948376736367679,-219.0,0.0,0.0,-9.68655014038086,0.0,0.0,0.0,0.0,10.817649999999999,0.0,0.0,14.17,0.0,0.0,5.9090593423892245e-05,-0.04886921905584123,,,,,,,
3.500011999999999,1602.0,0.0,16.0,0.0,0.0,11.0,1.614862084388733,0.38454142212867737,0.0,1498.0,0.0,-2.7912442,0.0,-79.0,-7.80924769921067e-06,-1.1516740289888756e-05,0.0,0.0,0.2813355326652527,3.0,0.0,0.0,437.9626007080078,1568.0,0.0,10.878395,0.0,423.0,11.0,51.4594515,-14.0,0.0,-0.009948376736367679,-220.0,0.0,0.0,-9.6644287109375,0.0,0.0,0.0,0.0,10.917641999999999,0.0,0.0,14.17,0.0,0.0,1.2100036205552556e-05,-0.04886921905584123,,,,,,,
3.600091999999999,1602.0,0.0,16.0,0.0,0.0,11.0,1.6282017230987549,0.40340137481689453,0.0,1498.0,0.0,-2.7912444,0.0,-79.0,-1.413787397856438e-05,3.865067408269983e-06,0.0,0.0,0.2567528188228607,3.0,0.0,0.0,437.9626007080078,1568.0,0.0,10.999034,0.0,424.0,11.0,51.4594518,-14.0,0.0,-0.009948376736367679,-219.0,0.0,0.0,-9.66242790222168,0.0,0.0,0.0,0.0,11.017722,0.0,0.0,14.14,0.0,0.0,0.00015906615488668472,-0.04886921905584123,,,,,,,
3.7000399999999987,1602.0,0.0,16.0,0.0,0.0,11.0,1.6140743494033813,0.38392549753189087,0.0,1498.0,0.0,-2.7912444,0.0,-80.0,1.0455580151801671e-05,-8.113069370475805e-06,0.0,0.0,0.3386951982975006,3.0,0.0,0.0,434.5936851501465,1568.0,0.0,11.07772,0.0,426.0,11.0,51.4594518,-14.0,0.0,-0.009948376736367679,-223.0,0.0,0.0,-9.68571662902832,0.0,0.0,0.0,0.0,11.117669999999999,0.0,0.0,14.14,0.0,0.0,-5.262947756232357e-05,-0.04886921905584123,,,,,,,
3.800038999999999,1602.0,0.0,16.0,0.0,0.0,11.0,1.6047980785369873,0.44789066910743713,0.0,1498.0,0.0,-2.7912445999999997,0.0,-80.0,-1.3630478875267724e-06,-5.074973551749055e-06,0.0,0.0,0.4042491018772125,3.0,0.0,0.0,434.5936851501465,1568.0,0.0,11.198252,0.0,428.0,11.0,51.4594521,-14.0,0.0,-0.009948376736367679,-224.0,0.0,0.0,-9.6766357421875,0.0,0.0,0.0,0.0,11.217668999999999,0.0,0.0,14.1,0.0,0.0,1.239254464367136e-05,-0.04886921905584123,,,,,,,
3.900185999999999,1602.0,0.0,16.0,0.0,0.0,11.0,1.62375009059906,0.3873291015625,0.0,1498.0,0.0,-2.7912445999999997,0.0,-80.0,7.869426459865856e-06,-8.445182251929434e-06,0.0,0.0,0.36600932478904724,3.0,0.0,0.0,434.5936851501465,1568.0,0.0,11.277804,0.0,428.0,11.0,51.4594521,-14.0,0.0,-0.009948376736367679,-223.0,0.0,0.0,-9.660730361938477,0.0,0.0,0.0,0.0,11.317815999999999,0.0,0.0,14.1,0.0,0.0,-8.225910337421678e-05,-0.04886921905584123,,,,,,,
4.000094999999999,1602.0,0.0,16.0,0.0,0.0,11.0,1.622452974319458,0.3963591456413269,0.0,1498.0,0.0,-2.7912448999999997,0.0,-80.0,-2.7345244689996224e-05,1.0421720709673966e-05,0.0,0.0,0.22670726478099823,3.0,0.0,0.0,434.5936851501465,1568.0,0.0,11.398444,0.0,427.0,11.0,51.459452299999995,-14.0,0.0,-0.009948376736367679,-223.0,0.0,0.0,-9.672781944274902,0.0,0.0,0.0,0.0,11.417724999999999,0.0,0.0,14.040000000000001,0.0,0.0,0.00023423732263898016,-0.04886921905584123,,,,,,,
4.100003,1602.0,0.0,16.0,0.0,0.0,11.0,1.630029559135437,0.33914420008659363,0.0,1498.0,0.0,-2.7912448999999997,0.0,-80.0,2.3921230066043463e-06,-1.3863432578724527e-05,0.0,0.0,0.37147215008735657,3.0,0.0,0.0,434.5936851501465,1568.0,0.0,11.477735,0.0,426.0,11.0,51.459452299999995,-14.0,0.0,-0.009948376736367679,-224.0,0.0,0.0,-9.672931671142578,0.0,0.0,0.0,0.0,11.517633,0.0,0.0,14.040000000000001,0.0,0.0,-0.00019644493091036005,-0.04886921905584123,,,,,,,
4.2001859999999995,1602.0,0.0,16.0,0.0,0.0,11.0,1.6191940307617188,0.42604589462280273,0.0,1498.0,0.0,-2.7912451,0.0,-79.0,-1.1767679504419049e-05,-8.572851315890146e-06,0.0,0.0,0.311381071805954,3.0,0.0,0.0,436.6749076843262,1568.0,0.0,11.598590999999999,0.0,425.0,11.0,51.459452399999996,-14.0,0.0,-0.009948376736367679,-220.0,0.0,0.0,-9.678716659545898,0.0,0.0,0.0,0.0,11.617816,0.0,0.0,13.99,0.0,0.0,0.00010987748502876552,-0.04886921905584123,,,,,,,
4.300071,1602.0,0.0,16.0,0.0,0.0,11.0,1.6258645057678223,0.34533190727233887,0.0,1498.0,0.0,-2.7912451,0.0,-79.0,-7.160192599968476e-06,-8.805541643296915e-06,0.0,0.0,0.2294386774301529,3.0,0.0,0.0,434.5936851501465,1568.0,0.0,11.677819,0.0,424.0,11.0,51.459452399999996,-14.0,0.0,-0.009948376736367679,-219.0,0.0,0.0,-9.668142318725586,0.0,0.0,0.0,0.0,11.717701,0.0,0.0,13.99,0.0,0.0,-1.741938615878186e-05,-0.04886921905584123,,,,,,,
4.400090999999999,1602.0,0.0,16.0,0.0,0.0,11.0,1.6242552995681763,0.48420464992523193,0.0,1498.0,0.0,-2.7912453999999998,0.0,-79.0,1.1162730369351428e-05,-3.887462753824431e-06,0.0,0.0,0.3386951982975006,3.0,0.0,0.0,436.6749076843262,1568.0,0.0,11.798377,0.0,425.0,11.0,51.459452399999996,-14.0,0.0,-0.009948376736367679,-219.0,0.0,0.0,-9.684560775756836,0.0,0.0,0.0,0.0,11.817720999999999,0.0,0.0,13.91,0.0,0.0,-1.0375917150978244e-05,-0.04886921905584123,,,,,,,
4.500146999999999,1602.0,0.0,16.0,0.0,0.0,11.0,1.6150392293930054,0.31449082493782043,0.0,1498.0,0.0,-2.7912453999999998,0.0,-79.0,-3.3816326680979906e-06,-4.301101570843055e-06,0.0,0.0,0.35781508684158325,3.0,0.0,0.0,436.6749076843262,1568.0,0.0,11.878457,0.0,424.0,11.0,51.459452399999996,-14.0,0.0,-0.009948376736367679,-219.0,0.0,0.0,-9.670391082763672,0.0,0.0,0.0,0.0,11.917777,0.0,0.0,13.91,0.0,0.0,1.1718731687768236e-05,-0.04886921905584123,,,,,,,
4.600915999999999,1602.0,0.0,16.0,0.0,0.0,11.0,1.6220518350601196,0.4838066101074219,0.0,1498.0,0.0,-2.7912456999999997,0.0,-79.0,1.4767223368095778e-05,5.73007385517922e-06,0.0,0.0,0.4042491018772125,3.0,0.0,0.0,443.07908630371094,1568.0,6.283185307179586,11.999426999999999,0.0,423.0,11.0,51.4594525,-14.0,0.0,-0.055326937288220246,-219.0,0.0,0.0,-9.6802978515625,0.0,0.0,0.0,0.0,12.018545999999999,0.0,0.0,13.86,0.0,0.0,-0.00011723680820903624,0.11693705988362008,,,,,,,
4.700679999999999,1602.0,0.0,16.0,0.0,0.0,11.0,1.602736234664917,0.3558032214641571,0.0,1498.0,0.0,-2.7912456999999997,0.0,-80.0,-2.096691576889941e-05,9.168709024644322e-06,0.0,0.005103396251797676,0.3769349753856659,3.0,0.0,-1.9912360585294664e-05,443.07908630371094,1568.0,6.283010774254387,12.078375,0.0,426.0,11.0,51.4594525,-14.0,0.0,-0.05515240436302082,-224.0,0.0,0.0,-9.676610946655273,0.0,0.0,0.0,9.834825323196128e-05,12.11831,0.0,0.001673397608101368,13.86,0.0,0.0,0.00014829340495205995,0.11693705988362008,,,,,,,
4.802469999999999,1602.0,0.0,16.0,0.0,0.0,11.0,1.6152509450912476,0.4673718810081482,0.0,1498.0,0.0,-2.7912459999999997,0.0,-80.0,5.399487894470824e-06,-3.2351684085435276e-06,0.0,0.03011591173708439,0.2212444394826889,3.0,0.0,-0.00043081896728836,443.07908630371094,1568.0,6.283010774254387,12.198889999999999,0.0,427.0,11.0,51.4594526,-14.0,0.0,-0.05497787143782138,-224.0,0.0,0.0,-9.683640480041504,0.0,0.0,0.0,0.00189192162360996,12.220099999999999,0.0,-0.005397809203714132,13.82,0.0,0.0,-5.867681517249419e-05,0.11693705988362008,,,,,,,
4.900752999999999,1602.0,0.0,16.0,0.0,0.0,11.0,1.6154745817184448,0.34032759070396423,0.0,1498.0,0.0,-2.7912459999999997,0.0,-80.0,-5.1563036696336464e-06,-3.221185095923699e-06,0.0,0.04973222315311432,0.29772400856018066,3.0,0.0,-0.0006877107080072165,443.07908630371094,1568.0,2.73318560862312,12.278587,0.0,426.0,11.0,51.4594526,-14.0,0.0,-0.05619960191421741,-224.0,0.0,0.0,-9.678794860839844,0.0,0.0,0.0,-0.0341421514749527,12.318382999999999,0.0,-0.00480339489877224,13.82,0.0,0.0,3.562207961212332e-05,0.1165879940332212,,,,,,,
5.0006829999999995,1602.0,0.0,16.0,0.0,0.0,11.0,1.616054654121399,0.426868200302124,0.0,1498.0,0.0,-2.7912463,0.0,-80.0,1.597461435918961e-05,9.349011646083334e-06,0.0,0.07271549850702286,0.32776954770088196,3.0,0.0,0.002910126931965351,443.07908630371094,1568.0,2.7338837403239182,12.399035,0.0,426.0,11.0,51.4594527,-14.0,0.0,-0.05585053606381855,-224.0,0.0,0.0,-9.673839569091797,0.0,0.0,0.0,-0.07724345475435257,12.418313,0.0,0.005754528101533651,13.780000000000001,0.0,0.0,-5.7280988141806756e-05,0.11676252695842065,,,,,,,
5.100687,1602.0,0.0,16.0,0.0,0.0,11.0,1.6232929229736328,0.35383912920951843,0.0,1498.0,0.0,-2.7912463,0.0,-80.0,-1.6749871540651916e-05,1.4176389868620087e-06,0.0,0.08476337790489197,0.40971192717552185,3.0,0.0,0.0037015576381236315,436.6749076843262,1568.0,2.7344073390995165,12.478615,0.0,427.0,11.0,51.4594527,-14.0,0.0,-0.055326937288220246,-225.0,0.0,0.0,-9.67342758178711,0.0,0.0,0.0,-0.10143397003412247,12.518317,0.0,0.008354687131941319,13.780000000000001,0.0,0.0,0.00010000226784506177,0.11676252695842065,,,,,,,
5.200738,1602.0,0.0,16.0,0.0,0.0,11.0,1.6069602966308594,0.4611985683441162,0.0,1498.0,0.0,-2.7912464999999997,0.0,-80.0,1.4456725355242153e-06,-5.270391469467494e-06,0.0,0.09772948920726776,0.30318683385849,3.0,0.0,0.006921072956174612,437.13299560546875,1568.0,2.735280003725513,12.599236,0.0,425.0,11.0,51.459452899999995,-14.0,0.0,-0.05515240436302082,-220.0,0.0,0.0,-9.669811248779297,0.0,0.0,0.0,-0.1337442696094513,12.618368,0.0,0.017986230552196503,13.74,0.0,0.0,-6.705664562289369e-05,0.11676252695842065,,,,,,,
5.300620999999999,1602.0,0.0,16.0,0.0,0.0,11.0,1.6323059797286987,0.3694104254245758,0.0,1498.0,0.0,-2.7912464999999997,0.0,-79.0,-2.140645966496856e-05,8.249347808924536e-06,0.0,0.10399484634399414,0.34962084889411926,3.0,0.0,0.007801697123795748,436.6749076843262,1568.0,2.7358036025011114,12.678571999999999,0.0,424.0,11.0,51.459452899999995,-14.0,0.0,-0.05480333851262195,-219.0,0.0,0.0,-9.677508354187012,0.0,0.0,0.0,-0.1515214592218399,12.718250999999999,0.0,0.019355187192559242,13.74,0.0,0.0,5.745286882513665e-05,0.11676252695842065,,,,,,,
5.400636999999999,1602.0,0.0,16.0,0.0,0.0,11.0,1.6039562225341797,0.44704949855804443,0.0,1498.0,0.0,-2.7912467,0.0,-79.0,-3.5035054271272725e-06,-8.45053460186042e-06,0.0,0.11043356359004974,0.2731412947177887,3.0,0.0,0.009324232116341591,437.13299560546875,1568.0,2.7361526683515107,12.798869,0.0,423.0,11.0,51.459452999999996,-14.0,0.0,-0.05480333851262195,-219.0,0.0,0.0,-9.69431209564209,0.0,0.0,0.0,-0.1715296059846878,12.818266999999999,0.0,0.025271369144320488,13.700000000000001,0.0,0.0,3.190831171243438e-05,0.11676252695842065,,,,,,,
5.500792,1602.0,0.0,16.0,0.0,0.0,11.0,1.617755651473999,0.4297197461128235,0.0,1498.0,0.0,-2.7912467,0.0,-79.0,1.8271597910790282e-06,-7.140331455211759e-06,0.0,0.11306389421224594,0.4670715928077698,3.0,0.0,0.010233097709715366,436.6749076843262,1568.0,2.7361526683515107,12.879095,0.0,424.0,11.0,51.459452999999996,-14.0,0.0,-0.05445427266222309,-220.0,0.0,0.0,-9.682266235351562,0.0,0.0,0.0,-0.18085409700870514,12.918422,0.0,0.027659766376018524,13.700000000000001,0.0,0.0,5.037754274432633e-05,0.11676252695842065,,,,,,,
5.600810999999999,1602.0,0.0,16.0,0.0,0.0,11.0,1.610825538635254,0.42848628759384155,0.0,1498.0,0.0,-2.7912471,0.0,-79.0,6.295826944875809e-06,-1.6879940196628758e-05,0.0,0.11444416642189026,0.3168438971042633,3.0,0.0,0.011365828104317188,436.6749076843262,1568.0,2.7358036025011114,12.998918,0.0,425.0,11.0,51.4594532,-14.0,0.0,-0.054279739737023644,-219.0,0.0,0.0,-9.685808181762695,0.0,0.0,0.0,-0.1929984986782074,13.018441,0.0,0.0317668654024601,13.63,0.0,0.0,7.3795922150335695e-06,0.11676252695842065,,,,,,,
5.700739,1602.0,0.0,16.0,0.0,0.0,11.0,1.6253771781921387,0.41304028034210205,0.0,1498.0,0.0,-2.7912471,0.0,-80.0,-7.891005009492713e-06,-6.726449580449757e-06,0.0,0.11404584348201752,0.37147215008735657,3.0,0.0,0.011573901399970055,434.5936851501465,1568.0,2.7356290695759125,13.078607,0.0,426.0,11.0,51.4594532,-14.0,0.0,-0.054105206811824215,-224.0,0.0,0.0,-9.690765380859375,0.0,0.0,0.0,-0.2004847228527069,13.118369,0.0,0.032728273421525955,13.63,0.0,0.0,6.98810121579855e-05,0.11676252695842065,,,,,,,
5.8006839999999995,1602.0,0.0,16.0,0.0,0.0,11.0,1.6254475116729736,0.37929490208625793,0.0,1498.0,0.0,-2.7912472999999998,0.0,-80.0,2.054917595566101e-06,-2.9895886553515493e-06,0.0,0.11186283826828003,0.41790616512298584,3.0,0.0,0.011847813613712788,434.8330764770508,1568.0,2.735105470800314,13.198915999999999,0.0,426.0,11.0,51.4594532,-14.0,0.0,-0.05358160803622592,-223.0,0.0,0.0,-9.674714088439941,0.0,0.0,0.0,-0.20910002291202545,13.218314,0.0,0.03499246761202812,13.56,0.0,0.0,-2.6144477466872408e-05,0.1165879940332212,,,,,,,
5.9008709999999995,1602.0,0.0,16.0,0.0,0.0,11.0,1.6142137050628662,0.45470377802848816,0.0,1498.0,0.0,-2.7912472999999998,0.0,-80.0,3.3397210810423196e-06,-4.414237458010047e-06,0.0,0.10962099581956863,0.4042491018772125,3.0,0.0,0.012379852123558521,434.5936851501465,1568.0,2.734756404949915,13.278627,0.0,426.0,11.0,51.4594532,-14.0,0.0,-0.05375614096142535,-224.0,0.0,0.0,-9.661815643310547,0.0,0.0,0.0,-0.21496032178401947,13.318501,0.0,0.03643067181110382,13.56,0.0,0.0,8.163034931107041e-05,0.1165879940332212,,,,,,,
6.000621999999999,1602.0,0.0,16.0,0.0,0.0,11.0,1.6197259426116943,0.3548032343387604,0.0,1498.0,0.0,-2.7912475999999997,0.0,-80.0,-7.433314833748657e-06,-2.5875046053496377e-06,0.0,0.10494270920753479,0.3523522615432739,3.0,0.0,0.011779924854636192,434.5936851501465,1568.0,2.7344073390995165,13.399,0.0,427.0,11.0,51.4594533,-14.0,0.0,-0.052708943410228755,-224.0,0.0,0.0,-9.677952766418457,0.0,0.0,0.0,-0.22425855696201324,13.418251999999999,0.0,0.03537890687584877,13.5,0.0,0.0,6.870194895003215e-05,0.1165879940332212,,,,,,,
6.100639999999999,1602.0,0.0,16.0,0.0,0.0,11.0,1.609777569770813,0.4556705057621002,0.0,1498.0,0.0,-2.7912475999999997,0.0,-80.0,2.1863721124442163e-05,-5.176310090282957e-06,0.0,0.10189775377511978,0.2731412947177887,3.0,0.0,0.012511634267866611,430.93541717529297,1568.0,2.7342328061743166,13.478608999999999,0.0,425.0,11.0,51.4594533,-14.0,0.0,-0.05288347633542819,-224.0,0.0,0.0,-9.675533294677734,0.0,0.0,0.0,-0.2298840880393982,13.51827,0.0,0.03798209875822067,13.5,0.0,0.0,-6.246663449399837e-05,0.1165879940332212,,,,,,,
6.200779999999999,1602.0,0.0,16.0,0.0,0.0,11.0,1.6044214963912964,0.32861337065696716,0.0,1498.0,0.0,-2.7912481,0.0,-79.0,-1.2491071160394671e-05,-1.2407193126855355e-05,0.0,0.09668321907520294,0.41790616512298584,3.0,0.0,0.0109225669875741,430.93541717529297,1568.0,2.734058273249117,13.5992,0.0,424.0,11.0,51.4594533,-14.0,0.0,-0.05235987755982989,-220.0,0.0,0.0,-9.66331672668457,0.0,0.0,0.0,-0.23540697991847992,13.618409999999999,0.0,0.03354034572839737,13.44,0.0,0.0,0.00013177089932655547,0.1165879940332212,,,,,,,
6.300786999999999,1602.0,0.0,16.0,0.0,0.0,11.0,1.6334547996520996,0.4540015459060669,0.0,1498.0,0.0,-2.7912481,0.0,-79.0,5.663695471205471e-06,-1.1578266154275268e-05,0.0,0.09357182681560516,0.37147215008735657,3.0,0.0,0.012912874110043049,430.8240394592285,1568.0,2.734058273249117,13.678638999999999,0.0,422.0,11.0,51.4594533,-14.0,0.0,-0.05235987755982989,-219.0,0.0,0.0,-9.662287712097168,0.0,0.0,0.0,-0.23866716027259827,13.718416999999999,0.0,0.03675118833780289,13.44,0.0,0.0,-0.00018016746406313282,0.1165879940332212,,,,,,,
6.400806,1602.0,0.0,16.0,0.0,0.0,11.0,1.6087920665740967,0.3776859939098358,0.0,1498.0,0.0,-2.7912486,0.0,-79.0,-2.1210859390447875e-05,1.93270425092149e-06,0.0,0.08736129850149155,0.2567528188228607,3.0,0.0,0.009965036995708942,430.8240394592285,1568.0,2.734058273249117,13.798848999999999,0.0,425.0,11.0,51.4594532,-14.0,0.0,-0.05235987755982989,-219.0,0.0,0.0,-9.664165496826172,0.0,0.0,0.0,-0.2447020709514618,13.818436,0.0,0.030574923381209373,13.39,0.0,0.0,0.00017187874902710367,0.1165879940332212,,,,,,,
6.500787,1602.0,0.0,16.0,0.0,0.0,11.0,1.6078627109527588,0.38908612728118896,0.0,1498.0,0.0,-2.7912486,0.0,-79.0,2.106558552968465e-05,-5.782436671221322e-06,0.0,0.0842185914516449,0.286798357963562,3.0,0.0,0.010658158920705318,429.46104431152344,1568.0,2.7338837403239182,13.879322,0.0,423.0,11.0,51.4594532,-14.0,0.0,-0.05183627878423159,-219.0,0.0,0.0,-9.678400039672852,0.0,0.0,0.0,-0.247367262840271,13.918417,0.0,0.031482014805078506,13.39,0.0,0.0,-0.00015757916367769095,0.1165879940332212,,,,,,,
6.600825999999999,1602.0,0.0,16.0,0.0,0.0,11.0,1.615527868270874,0.3420063853263855,0.0,1498.0,0.0,-2.7912491,0.0,-79.0,-1.7020700345568244e-05,-6.883363291138819e-06,0.0,0.08022015541791916,0.2649470567703247,3.0,0.0,0.008153427392244339,430.5396537780762,1568.0,2.7337092073987184,13.998896,0.0,423.0,11.0,51.4594532,-14.0,0.0,-0.05166174585903215,-219.0,0.0,0.0,-9.678586959838867,0.0,0.0,0.0,-0.24872422218322754,14.018455999999999,0.0,0.024870650842785835,13.35,0.0,0.0,0.00020011176758533383,0.1165879940332212,,,,,,,
6.700788999999999,1602.0,0.0,16.0,0.0,0.0,11.0,1.6264528036117554,0.46089375019073486,0.0,1498.0,0.0,-2.7912491,0.0,-80.0,1.437326257709513e-05,-7.231549984988397e-06,0.0,0.07787345349788666,0.294992595911026,3.0,0.0,0.009554482065141201,430.5396537780762,1568.0,2.7333601415483195,14.078626,0.0,426.0,11.0,51.4594532,-14.0,0.0,-0.05131268000863329,-223.0,0.0,0.0,-9.66615104675293,0.0,0.0,0.0,-0.24845603108406067,14.118419,0.0,0.026777328923344612,13.35,0.0,0.0,-5.80602886662937e-05,0.1165879940332212,,,,,,,
6.800778,1602.0,0.0,16.0,0.0,0.0,11.0,1.622956395149231,0.36383283138275146,0.0,1498.0,0.0,-2.7912496,0.0,-80.0,-1.3285747563443915e-05,-1.3180711061267866e-05,0.0,0.07441680133342743,0.3769349753856659,3.0,0.0,0.006726320367306471,444.8398742675781,1568.0,2.7328365427727213,14.198893,0.0,427.0,11.0,51.4594532,-14.0,0.0,-0.05096361415823442,-224.0,0.0,0.0,-9.6602783203125,0.0,0.0,0.0,-0.24714721739292145,14.218408,0.0,0.02000577002763748,13.3,0.0,0.0,0.00010606831455200169,0.1165879940332212,,,,,,,
6.900771,1602.0,0.0,16.0,0.0,0.0,11.0,1.6210236549377441,0.446101576089859,0.0,1498.0,0.0,-2.7912496,0.0,-80.0,2.3525600126150986e-05,-1.2103538065704802e-05,0.0,0.07185446470975876,0.4889228940010071,3.0,0.0,0.007384783122688532,430.5396537780762,1568.0,2.7324874769223224,14.278611999999999,0.0,427.0,11.0,51.4594532,-14.0,0.0,-0.05113814708343386,-224.0,0.0,0.0,-9.677579879760742,0.0,0.0,0.0,-0.24733473360538483,14.318401,0.0,0.022185401991009712,13.3,0.0,0.0,-0.000303192177615627,0.11641346110802178,,,,,,,
7.000778999999999,1602.0,0.0,16.0,0.0,0.0,11.0,1.6077470779418945,0.33492088317871094,0.0,1498.0,0.0,-2.7912501,0.0,-80.0,-3.960182633692969e-05,-9.99614768126182e-06,0.0,0.06574036180973053,0.5490139722824097,3.0,0.0,0.0016077099135145545,430.5396537780762,1568.0,2.731963878146724,14.399054,0.0,426.0,11.0,51.4594531,-14.0,0.0,-0.05096361415823442,-224.0,0.0,0.0,-9.671046257019043,0.0,0.0,0.0,-0.25237271189689636,14.418408999999999,0.0,0.009868143126368523,13.25,0.0,0.0,0.00036059955375215976,0.11641346110802178,,,,,,,
7.100746999999999,1602.0,0.0,16.0,0.0,0.0,11.0,1.6089690923690796,0.4220893979072571,0.0,1498.0,0.0,-2.7912501,0.0,-80.0,4.9082852116852226e-05,7.566728898916491e-06,0.0,0.059204600751399994,0.4069805145263672,3.0,0.0,0.0051589952781796455,430.5396537780762,1568.0,2.731614812296325,14.4786,0.0,426.0,11.0,51.4594531,-14.0,0.0,-0.05061454830783556,-223.0,0.0,0.0,-9.680975914001465,0.0,0.0,0.0,-0.26013660430908203,14.518377,0.0,0.01677052676677704,13.25,0.0,0.0,-0.00041917391589516923,0.11641346110802178,,,,,,,
7.200767999999999,1602.0,0.0,16.0,0.0,0.0,11.0,1.6147514581680298,0.40667760372161865,0.0,1498.0,0.0,-2.7912505999999997,0.0,-80.0,-1.7824496620560255e-05,4.690288067737094e-06,0.0,0.049784738570451736,0.43156322836875916,3.0,0.0,0.000159500224981457,430.5396537780762,1568.0,2.731440279371126,14.599247,0.0,422.0,11.0,51.459452999999996,-14.0,0.0,-0.05183627878423159,-220.0,0.0,0.0,-9.676838874816895,0.0,0.0,0.0,-0.27471065521240234,14.618398,0.0,0.0067553892731666565,13.200000000000001,0.0,0.0,0.0001095887862731448,0.11641346110802178,,,,,,,
7.300617,1602.0,0.0,16.0,0.0,0.0,11.0,1.6101226806640625,0.5600288510322571,0.0,1498.0,0.0,-2.7912505999999997,0.0,-80.0,1.0138636918097775e-05,-1.0850835218936336e-05,0.0,0.04404916986823082,0.570865273475647,3.0,0.0,0.0028635000344365835,429.46104431152344,1568.0,2.7312657464459265,14.678598,0.0,423.0,11.0,51.459452999999996,-14.0,0.0,-0.05235987755982989,-219.0,0.0,0.0,-9.710441589355469,0.0,0.0,0.0,-0.2844241261482239,14.718247,0.0,0.013159578666090965,13.200000000000001,0.0,0.0,-0.00024667948966708333,0.11641346110802178,,,,,,,
7.400790999999999,1602.0,0.0,16.0,0.0,0.0,11.0,1.6111924648284912,0.41016364097595215,0.0,1498.0,0.0,-2.7912510999999998,0.0,-80.0,-3.1458761050336916e-05,-3.7246329109904336e-05,0.0,0.035873182117938995,0.3605464994907379,3.0,0.0,-0.00498078903183341,430.5396537780762,1568.0,2.7309166805955276,14.798881,0.0,424.0,11.0,51.459452999999996,-14.0,0.0,-0.051487212933832724,-219.0,0.0,0.0,-9.661659240722656,0.0,0.0,0.0,-0.30192816257476807,14.818420999999999,0.0,-0.001724540488794446,13.15,0.0,0.0,0.0005136344712548685,0.11641346110802178,,,,,,,
7.500685,1602.0,0.0,16.0,0.0,0.0,11.0,1.6393333673477173,0.40304034948349,0.0,1498.0,0.0,-2.7912510999999998,0.0,-80.0,2.0224889177973792e-05,-3.7811312135778642e-06,0.0,0.025716418400406837,0.5025799870491028,3.0,0.0,0.0004873044090345502,429.46104431152344,1568.0,2.730742147670328,14.879111,0.0,424.0,11.0,51.459452999999996,-14.0,0.0,-0.05044001538263613,-218.0,0.0,0.0,-9.628072738647461,0.0,0.0,0.0,-0.31366902589797974,14.918315,0.0,0.006274638697504997,13.15,0.0,0.0,-0.0005013876037903474,0.11623892818282235,,,,,,,
7.600841999999999,1602.0,0.0,16.0,0.0,0.0,11.0,1.6078615188598633,0.47091013193130493,0.0,1498.0,0.0,-2.7912515,0.0,-79.0,-4.2361726948661806e-05,-9.219591144088833e-06,0.0,0.02032756619155407,0.32230672240257263,3.0,0.0,-0.006913225166499615,429.46104431152344,1568.0,2.7305676147451288,14.999004,0.0,425.0,11.0,51.459452899999995,-14.0,0.0,-0.05166174585903215,-219.0,0.0,0.0,-9.689642906188965,0.0,0.0,0.0,-0.33034345507621765,15.018472,0.0,-0.005507161375135183,13.09,0.0,0.0,0.0004568834902058575,0.11623892818282235,,,,,,,
7.700793,1602.0,0.0,16.0,0.0,0.0,11.0,1.6420795917510986,0.37485480308532715,0.0,1498.0,0.0,-2.7912515,0.0,-80.0,1.4965211043648598e-05,5.959452806558647e-06,0.0,0.013520726002752781,0.31957530975341797,3.0,0.0,-0.005412384867668152,429.46104431152344,1568.0,2.7300440159695305,15.078622,0.0,427.0,11.0,51.459452899999995,-14.0,0.0,-0.04974188368183839,-223.0,0.0,0.0,-9.667488098144531,0.0,0.0,0.0,-0.3400651216506958,15.118423,0.0,-0.003178737126290798,13.09,0.0,0.0,-5.988463691168914e-05,0.11623892818282235,,,,,,,
7.800767,1602.0,0.0,16.0,0.0,0.0,11.0,1.635919451713562,0.28763583302497864,0.0,1498.0,0.0,-2.7912518,0.0,-80.0,-4.454609933336489e-05,-4.189767917476493e-06,0.0,0.008319375105202198,0.3550836741924286,3.0,0.0,-0.01061688456684351,456.4403533935547,1568.0,2.7296949501191317,15.198893,0.0,426.0,11.0,51.459452899999995,-14.0,0.0,-0.04852015320544237,-224.0,0.0,0.0,-9.657212257385254,0.0,0.0,0.0,-0.3500119745731354,15.218397,0.0,-0.011428416706621647,13.05,0.0,0.0,0.0005348298135545228,0.11623892818282235,,,,,,,
7.900826999999999,1602.0,0.0,16.0,0.0,0.0,11.0,1.627360463142395,0.4676714837551117,0.0,1498.0,0.0,-2.7912518,0.0,-80.0,6.442033314323034e-05,-1.680887691909769e-05,0.0,0.006203456781804562,0.35781508684158325,3.0,0.0,-0.00473315455019474,429.46104431152344,1568.0,2.7293458842687324,15.278613,0.0,427.0,11.0,51.459452899999995,-14.0,0.0,-0.04852015320544237,-224.0,0.0,0.0,-9.723369598388672,0.0,0.0,0.0,-0.35469818115234375,15.318456999999999,0.0,0.003258894430473447,13.05,0.0,0.0,-0.0008181492893606062,0.11623892818282235,,,,,,,
8.000599000000001,1602.0,0.0,16.0,0.0,0.0,11.0,1.631364107131958,0.4393807649612427,0.0,1498.0,0.0,-2.7912521999999997,0.0,-81.0,-8.341773449299636e-05,7.3922205505782435e-06,0.0,0.0027620417531579733,0.32776954770088196,3.0,0.0,-0.012515525333583355,429.46104431152344,1568.0,2.728996818418334,15.399102,0.0,427.0,11.0,51.4594528,-14.0,0.0,-0.04991641660703782,-224.0,0.0,0.0,-9.570843696594238,0.0,0.0,0.0,-0.36034685373306274,15.418229,0.0,-0.013259620405733585,13.0,0.0,0.0,0.0005952692987207259,0.11623892818282235,,,,,,,
8.100628999999998,1602.0,0.0,16.0,0.0,0.0,11.0,1.5731000900268555,0.33898794651031494,0.0,1498.0,0.0,-2.7912521999999997,0.0,-80.0,4.867738405287668e-05,-2.180426975916528e-05,0.0,0.004400406498461962,0.34962084889411926,3.0,0.0,-0.010996385477483273,429.46104431152344,1568.0,2.728996818418334,15.478556999999999,0.0,427.0,11.0,51.4594528,-14.0,0.0,-0.04974188368183839,-225.0,0.0,0.0,-9.824909210205078,0.0,0.0,0.0,-0.36269140243530273,15.518258999999999,0.0,-0.00475586811080575,13.0,0.0,0.0,-0.0005124546765878754,0.11623892818282235,,,,,,,
8.200793,1602.0,0.0,16.0,0.0,0.0,11.0,1.6384953260421753,0.4751189947128296,0.0,1498.0,0.0,-2.7912524999999997,0.0,-80.0,-4.7639423357329976e-05,-1.8059166966950697e-05,0.0,0.00015301554230973125,0.286798357963562,3.0,0.0,-0.01364000141620636,429.46104431152344,1568.0,2.7286477525679347,15.599210999999999,0.0,424.0,11.0,51.4594528,-14.0,0.0,-0.050789081233034994,-220.0,0.0,0.0,-9.562243461608887,0.0,0.0,0.0,-0.36533528566360474,15.618423,0.0,-0.012456017546355724,12.97,0.0,0.0,0.00023563210124504414,0.11623892818282235,,,,,,,
8.300653,1602.0,0.0,16.0,0.0,0.0,11.0,1.5763570070266724,0.4154396653175354,0.0,1498.0,0.0,-2.7912524999999997,0.0,-80.0,-1.2444543254066645e-05,2.2004205452368787e-06,0.0,0.0021082311868667603,0.4588773548603058,3.0,0.0,-0.01443553902208805,429.46104431152344,1568.0,2.728822285493134,15.678647999999999,0.0,423.0,11.0,51.4594528,-14.0,0.0,-0.050789081233034994,-220.0,0.0,0.0,-9.8087739944458,0.0,0.0,0.0,-0.3655603229999542,15.718283,0.0,-0.010791510343551636,12.97,0.0,0.0,4.604185179618894e-05,0.11606439525762292,,,,,,,
8.400618999999999,1602.0,0.0,16.0,0.0,0.0,11.0,1.6489757299423218,0.40894633531570435,0.0,1498.0,0.0,-2.7912529,0.0,-79.0,3.15262625287111e-05,-4.294426092782599e-05,0.0,-0.0005647590733133256,0.28406694531440735,3.0,0.0,-0.014895603992044926,440.07632064819336,1568.0,2.728298686717536,15.798891999999999,0.0,423.0,11.0,51.459452899999995,-14.0,0.0,-0.050265482457436686,-220.0,0.0,0.0,-9.594640731811523,0.0,0.0,0.0,-0.367227703332901,15.818249,0.0,-0.01170195173472166,12.92,0.0,0.0,-0.00011184956361819894,0.11623892818282235,,,,,,,
8.500847999999998,1602.0,0.0,16.0,0.0,0.0,11.0,1.5948848724365234,0.4595828652381897,0.0,1498.0,0.0,-2.7912529,0.0,-79.0,-7.408821013482728e-05,9.12116113932214e-06,0.0,-0.0015568346716463566,0.4561459422111511,3.0,0.0,-0.01671983115375042,440.07632064819336,1568.0,2.7284732196427357,15.8791,0.0,424.0,11.0,51.459452899999995,-14.0,0.0,-0.05096361415823442,-220.0,0.0,0.0,-9.73200798034668,0.0,0.0,0.0,-0.36816561222076416,15.918477999999999,0.0,-0.014378041960299015,12.92,0.0,0.0,0.00036793455998302397,0.11588986233242349,,,,,,,
8.600778000000002,1602.0,0.0,16.0,0.0,0.0,11.0,1.635457158088684,0.35414665937423706,0.0,1498.0,0.0,-2.7912532999999997,0.0,-79.0,7.187607481590876e-05,-4.3154543210736647e-05,0.0,-0.0032652406953275204,0.43975746631622314,3.0,0.0,-0.01808845065534115,440.07632064819336,1568.0,2.7281241537923364,15.998928999999999,0.0,424.0,11.0,51.4594528,-14.0,0.0,-0.04904375198104066,-219.0,0.0,0.0,-9.678580284118652,0.0,0.0,0.0,-0.3703751862049103,16.018408,0.0,-0.014891626313328743,12.870000000000001,0.0,0.0,-0.00012684801744336822,0.11588986233242349,,,,,,,
8.700637,1602.0,0.0,16.0,0.0,0.0,11.0,1.6165690422058105,0.4901409149169922,0.0,1498.0,0.0,-2.7912532999999997,0.0,-80.0,-4.608249653682457e-05,2.079906217394883e-05,0.0,-0.008472706191241741,0.6036422252655029,3.0,0.0,-0.015546157956123352,440.07632064819336,1568.0,2.7281241537923364,16.07865,0.0,426.0,11.0,51.4594528,-14.0,0.0,-0.04991641660703782,-223.0,0.0,0.0,-9.6484956741333,0.0,0.0,0.0,-0.3736226558685303,16.118267,0.0,-0.01286030001938343,12.870000000000001,0.0,0.0,5.636238937054426e-05,0.11588986233242349,,,,,,,
8.800685000000001,1602.0,0.0,16.0,0.0,0.0,11.0,1.6140127182006836,0.3808056116104126,0.0,1498.0,0.0,-2.7912535999999997,0.0,-81.0,1.4500633977863325e-05,-4.717371151411794e-05,0.0,-0.008084490895271301,0.5298941135406494,3.0,0.0,-0.021675828844308853,441.9499282836914,1568.0,2.7277750879419376,16.198871,0.0,429.0,11.0,51.4594528,-14.0,0.0,-0.04904375198104066,-224.0,0.0,0.0,-9.701433181762695,0.0,0.0,0.0,-0.38291358947753906,16.218315,0.0,-0.019947918131947517,12.82,0.0,0.0,0.00014616963801245182,0.11588986233242349,,,,,,,
8.900742000000001,1602.0,0.0,16.0,0.0,0.0,11.0,1.6233131885528564,0.3441368639469147,0.0,1498.0,0.0,-2.7912535999999997,0.0,-80.0,2.0477356329164655e-05,8.923808410852336e-06,0.0,-0.015157308429479599,0.6036422252655029,3.0,0.0,-0.017920881509780884,440.07632064819336,1568.0,2.727600555016738,16.278636,0.0,427.0,11.0,51.4594528,-14.0,0.0,-0.0486946861306418,-224.0,0.0,0.0,-9.652298927307129,0.0,0.0,0.0,-0.39181438088417053,16.318372,0.0,-0.015175152570009232,12.82,0.0,0.0,-0.00037084849774118026,0.11588986233242349,,,,,,,
9.000611,1602.0,0.0,16.0,0.0,0.0,11.0,1.6469954252243042,0.5415827631950378,0.0,1498.0,0.0,-2.7912539,0.0,-81.0,-3.8349223049863845e-05,-5.976169185402606e-06,0.0,-0.019005725160241127,0.40971192717552185,3.0,0.0,-0.020988576114177704,441.9499282836914,1568.0,2.727426022091539,16.399248999999998,0.0,430.0,11.0,51.4594528,-14.0,0.0,-0.050265482457436686,-225.0,0.0,0.0,-9.630193710327148,0.0,0.0,0.0,-0.40803828835487366,16.418241,0.0,-0.020456364378333092,12.780000000000001,0.0,0.0,0.00029362908213145756,0.11588986233242349,,,,,,,
9.100629999999999,1602.0,0.0,16.0,0.0,0.0,11.0,1.5986049175262451,0.31038376688957214,0.0,1498.0,0.0,-2.7912539,0.0,-80.0,9.317014376760696e-06,-1.1453825669242272e-05,0.0,-0.02101924456655979,0.589985191822052,3.0,0.0,-0.02333803102374077,440.07632064819336,1568.0,2.72707695624114,16.478614999999998,0.0,426.0,11.0,51.4594528,-14.0,0.0,-0.04904375198104066,-224.0,0.0,0.0,-9.723559379577637,0.0,0.0,0.0,-0.41827213764190674,16.518259999999998,0.0,-0.02198782190680504,12.780000000000001,0.0,0.0,-2.817455872631812e-05,0.11588986233242349,,,,,,,
9.200565999999998,1602.0,0.0,16.0,0.0,0.0,11.0,1.6400022506713867,0.5116636753082275,0.0,1498.0,0.0,-2.7912542,0.0,-79.0,-3.263522961053024e-05,-3.745364898370448e-07,0.0,-0.028127025812864304,0.4779972434043884,3.0,0.0,-0.02161114476621151,441.9499282836914,1568.0,2.726727890390741,16.599111999999998,0.0,424.0,11.0,51.459452899999995,-14.0,0.0,-0.04921828490624009,-219.0,0.0,0.0,-9.631011962890625,0.0,0.0,0.0,-0.4332702159881592,16.618195999999998,0.0,-0.02034500241279602,12.74,0.0,0.0,0.0002025407805095037,0.11588986233242349,,,,,,,
9.300645,1602.0,0.0,16.0,0.0,0.0,11.0,1.6019887924194336,0.24653249979019165,0.0,1498.0,0.0,-2.7912542,0.0,-79.0,1.9941137930023937e-05,-3.915718864138177e-05,0.0,-0.028479434549808502,0.6091050505638123,3.0,0.0,-0.02437063679099083,440.07632064819336,1568.0,2.7265533574655416,16.678576,0.0,425.0,11.0,51.459452899999995,-14.0,0.0,-0.04834562028024293,-220.0,0.0,0.0,-9.728100776672363,0.0,0.0,0.0,-0.44329017400741577,16.718275,0.0,-0.022657711058855057,12.74,0.0,0.0,-0.00023930729280771508,0.11588986233242349,,,,,,,
9.400783,1602.0,0.0,16.0,0.0,0.0,11.0,1.650125503540039,0.6015950441360474,0.0,1498.0,0.0,-2.7912543999999997,0.0,-80.0,-2.8600312587659506e-05,2.774247368062257e-06,0.0,-0.03647945076227188,0.5681338906288147,3.0,0.0,-0.022646060213446617,441.9499282836914,1568.0,2.7265533574655416,16.798877,0.0,424.0,11.0,51.459452899999995,-14.0,0.0,-0.04991641660703782,-219.0,0.0,0.0,-9.593530654907227,0.0,0.0,0.0,-0.45880410075187683,16.818413,0.0,-0.019923938438296318,12.72,0.0,0.0,6.826245584972965e-05,0.11588986233242349,,,,,,,
9.500799,1602.0,0.0,16.0,0.0,0.0,11.0,1.6170786619186401,0.23167765140533447,0.0,1498.0,0.0,-2.7912543999999997,0.0,-80.0,1.1566470361345844e-05,-4.120623704009131e-05,0.0,-0.03629392758011818,0.5954480171203613,3.0,0.0,-0.029622483998537064,441.9499282836914,1568.0,2.726378824540342,16.879175999999998,0.0,423.0,11.0,51.459452899999995,-14.0,0.0,-0.0486946861306418,-219.0,0.0,0.0,-9.69227123260498,0.0,0.0,0.0,-0.46988916397094727,16.918429,0.0,-0.03068050555884838,12.72,0.0,0.0,0.0003884945081969166,0.11588986233242349,,,,,,,
9.600798999999999,1602.0,0.0,16.0,0.0,0.0,11.0,1.6237272024154663,0.3488602638244629,0.0,1498.0,0.0,-2.7912547,0.0,-79.0,4.492697411896343e-05,4.4550594758712636e-06,0.0,-0.04538625478744507,0.5189684629440308,3.0,0.0,-0.021882450208067894,441.9499282836914,1568.0,2.7260297586899433,16.998959,0.0,424.0,11.0,51.459452899999995,-14.0,0.0,-0.04834562028024293,-219.0,0.0,0.0,-9.652568817138672,0.0,0.0,0.0,-0.4869398772716522,17.018428999999998,0.0,-0.01758379302918911,12.67,0.0,0.0,-0.0006366202061678728,0.11571532940722405,,,,,,,
9.700628000000002,1602.0,0.0,16.0,0.0,0.0,11.0,1.6368714570999146,0.5967620611190796,0.0,1498.0,0.0,-2.7912547,0.0,-81.0,-7.132320556446306e-05,5.920872405879307e-06,0.0,-0.047937050461769104,0.4725344181060791,3.0,0.0,-0.02638281136751175,440.07632064819336,1568.0,2.7260297586899433,17.078644,0.0,425.0,11.0,51.459452899999995,-14.0,0.0,-0.05009094953223726,-224.0,0.0,0.0,-9.61786937713623,0.0,0.0,0.0,-0.49786892533302307,17.118258,0.0,-0.026220308616757393,12.67,0.0,0.0,0.0007568509412447105,0.11571532940722405,,,,,,,
9.800701,1602.0,0.0,16.0,0.0,0.0,11.0,1.5490118265151978,0.1941080093383789,0.0,1498.0,0.0,-2.791255,0.0,-80.0,4.6887674456669225e-05,1.4873759361303077e-05,0.0,-0.052056293934583664,0.3851292133331299,3.0,0.0,-0.02413364313542843,440.07632064819336,1568.0,2.7253316269891457,17.198892,0.0,425.0,11.0,51.459452899999995,-14.0,0.0,-0.047472955654245766,-224.0,0.0,0.0,-9.796838760375977,0.0,0.0,0.0,-0.5113945603370667,17.218331,0.0,-0.019544094800949097,12.620000000000001,0.0,0.0,-0.00040029242235755584,0.11588986233242349,,,,,,,
9.900625000000002,1602.0,0.0,16.0,0.0,0.0,11.0,1.6910467147827148,0.5475260019302368,0.0,1498.0,0.0,-2.791255,0.0,-80.0,-5.0266149659912795e-05,-1.0539268209173748e-05,0.0,-0.05459953099489212,0.5790595412254333,3.0,0.0,-0.024057507514953613,433.2443084716797,1568.0,2.7251570940639462,17.27861,0.0,427.0,11.0,51.459452899999995,-14.0,0.0,-0.04904375198104066,-224.0,0.0,0.0,-9.566774368286133,0.0,0.0,0.0,-0.517845094203949,17.318255,0.0,-0.02244163490831852,12.620000000000001,0.0,0.0,0.0002186123822736874,0.11606439525762292,,,,,,,
10.000594,1602.0,0.0,16.0,0.0,0.0,11.0,1.5576012134552002,0.28092581033706665,0.0,1498.0,0.0,-2.7912551999999997,0.0,-80.0,-1.1214883398877302e-05,5.691569140192175e-06,0.0,-0.054088007658720016,0.587253749370575,3.0,0.0,-0.02548414096236229,440.07632064819336,1568.0,2.7248080282135474,17.398925,0.0,426.0,11.0,51.459452899999995,-14.0,0.0,-0.0481710873550435,-224.0,0.0,0.0,-9.761946678161621,0.0,0.0,0.0,-0.5258802771568298,17.418224,0.0,-0.022578002884984016,12.6,0.0,0.0,-1.938549726155028e-05,0.11588986233242349,,,,,,,
10.100618,1602.0,0.0,16.0,0.0,0.0,11.0,1.6609535217285156,0.4608074128627777,0.0,1498.0,0.0,-2.7912551999999997,0.0,-80.0,1.1842795268212753e-05,-6.34547726697927e-06,0.0,-0.0576285757124424,0.5353569388389587,3.0,0.0,-0.022636491805315018,440.07632064819336,1568.0,2.724458962363148,17.478607,0.0,426.0,11.0,51.459452899999995,-14.0,0.0,-0.04886921905584123,-224.0,0.0,0.0,-9.621477127075195,0.0,0.0,0.0,-0.5327872633934021,17.518248,0.0,-0.021120943129062653,12.6,0.0,0.0,-4.304586058843109e-05,0.11606439525762292,,,,,,,
10.200634,1602.0,0.0,16.0,0.0,0.0,11.0,1.600389838218689,0.3882153332233429,0.0,1498.0,0.0,-2.7912554,0.0,-80.0,-6.614046473012332e-05,1.8618515726389163e-05,0.0,-0.06021036207675934,0.6773903965950012,3.0,0.0,-0.023984896019101143,440.07632064819336,1568.0,2.724284429437949,17.599197,0.0,426.0,11.0,51.459452899999995,-14.0,0.0,-0.04904375198104066,-219.0,0.0,0.0,-9.709240913391113,0.0,0.0,0.0,-0.543357253074646,17.618264,0.0,-0.02403319999575615,12.57,0.0,0.0,0.00024465672909352595,0.11623892818282235,,,,,,,
10.300571999999999,1602.0,0.0,16.0,0.0,0.0,11.0,1.6524635553359985,0.3545238673686981,0.0,1498.0,0.0,-2.7912554,0.0,-78.0,3.6930887399062355e-05,-3.5320946052828844e-05,0.0,-0.061830099672079086,0.40971192717552185,3.0,0.0,-0.023338444530963898,440.07632064819336,1568.0,2.72393536358755,17.678639,0.0,424.0,11.0,51.459452899999995,-14.0,0.0,-0.0481710873550435,-220.0,0.0,0.0,-9.61036491394043,0.0,0.0,0.0,-0.5517284870147705,17.718201999999998,0.0,-0.02317623421549797,12.57,0.0,0.0,-9.160802765158149e-05,0.11641346110802178,,,,,,,
10.400633,1602.0,0.0,16.0,0.0,0.0,11.0,1.6112136840820312,0.5125793218612671,0.0,1498.0,0.0,-2.7912557,0.0,-79.0,-5.225321096867472e-05,8.111318948357348e-06,0.0,-0.06464056670665741,0.49984854459762573,3.0,0.0,-0.021047109737992287,441.1116180419922,1568.0,2.72393536358755,17.798833,0.0,423.0,11.0,51.459452899999995,-14.0,0.0,-0.04939281783143953,-218.0,0.0,0.0,-9.684417724609375,0.0,0.0,0.0,-0.5626436471939087,17.818262999999998,0.0,-0.02132626436650753,12.52,0.0,0.0,0.00027086046896542334,0.11641346110802178,,,,,,,
10.500613999999999,1602.0,0.0,16.0,0.0,0.0,11.0,1.5945324897766113,0.1945221722126007,0.0,1498.0,0.0,-2.7912557,0.0,-79.0,3.985644722862614e-05,-4.7169893704297185e-06,0.0,-0.06438874453306198,0.4943857192993164,3.0,0.0,-0.020170701667666435,441.1116180419922,1568.0,2.723760830662351,17.879379,0.0,425.0,11.0,51.459452899999995,-14.0,0.0,-0.0486946861306418,-219.0,0.0,0.0,-9.750605583190918,0.0,0.0,0.0,-0.5676406621932983,17.918243999999998,0.0,-0.020373472943902016,12.52,0.0,0.0,-0.0004192017113386753,0.11641346110802178,,,,,,,
10.600781999999999,1602.0,0.0,16.0,0.0,0.0,11.0,1.6565724611282349,0.6127787828445435,0.0,1498.0,0.0,-2.7912559,0.0,-80.0,-5.5703019682927893e-05,3.581311233130763e-05,0.0,-0.06877562403678894,0.554476797580719,3.0,0.0,-0.014920906163752079,468.34754180908203,1568.0,2.7235862977371514,17.998926,0.0,425.0,11.0,51.459452899999995,-14.0,0.0,-0.05113814708343386,-220.0,0.0,0.0,-9.587930679321289,0.0,0.0,0.0,-0.5739961266517639,18.018411999999998,0.0,-0.01704743318259716,12.48,0.0,0.0,0.00027249794568083775,0.11676252695842065,,,,,,,
10.700775,1602.0,0.0,16.0,0.0,0.0,11.0,1.6178022623062134,0.2879140079021454,0.0,1498.0,0.0,-2.7912559,0.0,-80.0,7.002095652691274e-05,-8.279436884477531e-05,0.0,-0.062059469521045685,0.6555390954017639,3.0,0.0,-0.018574904650449753,468.34754180908203,1568.0,2.7234117648119516,18.078644,0.0,427.0,11.0,51.459452899999995,-14.0,0.0,-0.05009094953223726,-224.0,0.0,0.0,-9.704315185546875,0.0,0.0,0.0,-0.5778418183326721,18.118405,0.0,-0.020528540015220642,12.48,0.0,0.0,-0.00018560836523818857,0.11676252695842065,,,,,,,
10.800595999999999,1602.0,0.0,16.0,0.0,0.0,11.0,1.628739595413208,0.5193064212799072,0.0,1498.0,0.0,-2.7912561,0.0,-81.0,-7.40884864637978e-05,7.84816700924504e-05,0.0,-0.07254312932491302,0.41790616512298584,3.0,0.0,-0.007856101728975773,468.34754180908203,1568.0,2.7232372318867526,18.198867,0.0,427.0,11.0,51.459452899999995,-14.0,0.0,-0.05113814708343386,-224.0,0.0,0.0,-9.622648239135742,0.0,0.0,0.0,-0.5857874751091003,18.218225999999998,0.0,-0.010620096698403358,12.450000000000001,0.0,0.0,0.0001804527818525259,0.11693705988362008,,,,,,,
10.900770000000001,1602.0,0.0,16.0,0.0,0.0,11.0,1.6308441162109375,0.27672719955444336,0.0,1498.0,0.0,-2.7912561,0.0,-80.0,3.0433586665169137e-05,-4.010078705715441e-05,0.0,-0.0672023817896843,0.7675270438194275,3.0,0.0,-0.011693202890455723,441.1116180419922,1568.0,2.722713633111154,18.278627,0.0,425.0,11.0,51.459452899999995,-14.0,0.0,-0.050265482457436686,-224.0,0.0,0.0,-9.661205291748047,0.0,0.0,0.0,-0.5905553698539734,18.3184,0.0,-0.016849741339683533,12.450000000000001,0.0,0.0,0.00010809099385233244,0.11711159280881951,,,,,,,
11.000625,1602.0,0.0,16.0,0.0,0.0,11.0,1.600852370262146,0.4688052833080292,0.0,1498.0,0.0,-2.7912562,0.0,-81.0,-3.755209117945516e-05,4.064557368621217e-05,0.0,-0.07327396422624588,0.4889228940010071,3.0,0.0,-0.00107772636692971,460.99949645996094,1568.0,2.722713633111154,18.399062,0.0,426.0,11.0,51.459452999999996,-14.0,0.0,-0.05131268000863329,-224.0,0.0,0.0,-9.718104362487793,0.0,0.0,0.0,-0.5989782214164734,18.418255,0.0,-0.0033162094186991453,12.42,0.0,0.0,-0.00014366765798541717,0.11711159280881951,,,,,,,
11.100632000000001,1602.0,0.0,16.0,0.0,0.0,11.0,1.6388238668441772,0.5175996422767639,0.0,1498.0,0.0,-2.7912562,0.0,-81.0,8.974592799241829e-05,-7.919170550954538e-05,0.0,-0.07026207447052002,0.4288318157196045,3.0,0.0,-0.003259614109992981,441.1116180419922,1568.0,2.722364567260755,18.478592,0.0,425.0,11.0,51.459452999999996,-14.0,0.0,-0.05166174585903215,-224.0,0.0,0.0,-9.611589431762695,0.0,0.0,0.0,-0.6057705879211426,18.518262,0.0,-0.005872555077075958,12.42,0.0,0.0,-0.00020620534153413197,0.11746065865921838,,,,,,,
11.200917,1602.0,0.0,16.0,0.0,0.0,11.0,1.596789002418518,0.2928194999694824,0.0,1498.0,0.0,-2.7912564,0.0,-80.0,-7.17476306085491e-05,2.3214843816823993e-05,0.0,-0.07227137684822083,0.4643401801586151,3.0,0.0,-0.00212680920958519,441.1116180419922,1568.0,2.722539100185955,18.599314,0.0,424.0,11.0,51.459452899999995,-14.0,0.0,-0.05183627878423159,-220.0,0.0,0.0,-9.749006271362305,0.0,0.0,0.0,-0.6107445955276489,18.618547,0.0,-0.009607692249119282,12.38,0.0,0.0,0.0004512275888370855,0.11728612573401895,,,,,,,
11.300737999999999,1602.0,0.0,16.0,0.0,0.0,11.0,1.6256170272827148,0.6224144697189331,0.0,1498.0,0.0,-2.7912564,0.0,-79.0,1.8803906051814958e-05,-4.5727295963517174e-05,0.0,-0.07061967253684998,0.6801217794418335,3.0,0.0,0.0042464532889425755,440.07632064819336,1568.0,2.722364567260755,18.678580999999998,0.0,425.0,11.0,51.459452899999995,-14.0,0.0,-0.05166174585903215,-219.0,0.0,0.0,-9.658468246459961,0.0,0.0,0.0,-0.6118862628936768,18.718367999999998,0.0,0.002439563162624836,12.38,0.0,0.0,-0.00028728521915394214,0.11728612573401895,,,,,,,
11.40064,1602.0,0.0,16.0,0.0,0.0,11.0,1.6148011684417725,0.3321627080440521,0.0,1498.0,0.0,-2.7912565,0.0,-80.0,-2.0843758384931772e-05,-1.2064552314807665e-05,0.0,-0.0698595941066742,0.6364191770553589,3.0,0.0,0.0024136339779943228,440.07632064819336,1568.0,2.722364567260755,18.798878,0.0,424.0,11.0,51.459452899999995,-14.0,0.0,-0.05131268000863329,-219.0,0.0,0.0,-9.677225112915039,0.0,0.0,0.0,-0.6150285005569458,18.81827,0.0,-0.005963834468275309,12.34,0.0,0.0,0.00042738098384772995,0.11746065865921838,,,,,,,
11.500810999999999,1602.0,0.0,16.0,0.0,0.0,11.0,1.5976433753967285,0.31965696811676025,0.0,1498.0,0.0,-2.7912565,0.0,-78.0,-2.354360011401797e-05,1.8033836134042054e-05,0.0,-0.07092644274234772,0.5162370204925537,3.0,0.0,0.006256932392716408,440.07632064819336,1568.0,2.722364567260755,18.879118,0.0,423.0,11.0,51.459452899999995,-14.0,0.0,-0.050789081233034994,-219.0,0.0,0.0,-9.687573432922363,0.0,0.0,0.0,-0.6196151375770569,18.918440999999998,0.0,0.00010857282904908061,12.34,0.0,0.0,-3.478981738950558e-05,0.11746065865921838,,,,,,,
11.600693,1602.0,0.0,16.0,0.0,0.0,11.0,1.65272057056427,0.52225661277771,0.0,1498.0,0.0,-2.7912567,0.0,-80.0,-1.3021325120616376e-05,-2.9881188798437856e-06,0.0,-0.07260879874229431,0.6200307011604309,3.0,0.0,0.010946830734610558,451.48766326904297,1568.0,2.722364567260755,18.998874,0.0,423.0,11.0,51.459452899999995,-14.0,0.0,-0.05235987755982989,-219.0,0.0,0.0,-9.631977081298828,0.0,0.0,0.0,-0.6261571049690247,19.018323,0.0,0.005604838021099567,12.3,0.0,0.0,-0.0002591625858921153,0.11763519158441782,,,,,,,
11.70063,1602.0,0.0,16.0,0.0,0.0,11.0,1.6515384912490845,0.43817034363746643,0.0,1498.0,0.0,-2.7912567,0.0,-80.0,5.327630679107154e-05,-5.524489875908272e-05,0.0,-0.07051876187324524,0.5244312882423401,3.0,0.0,0.0071373796090483665,451.48766326904297,1568.0,2.722364567260755,19.078615,0.0,426.0,11.0,51.459452899999995,-14.0,0.0,-0.05305800926062762,-223.0,0.0,0.0,-9.641664505004883,0.0,0.0,0.0,-0.6300944685935974,19.11826,0.0,-0.0003545455983839929,12.3,0.0,0.0,0.0001323152023799148,0.11763519158441782,,,,,,,
11.800643999999998,1602.0,0.0,16.0,0.0,0.0,11.0,1.6176680326461792,0.3517911732196808,0.0,1498.0,0.0,-2.7912569,0.0,-81.0,-2.363533930040268e-05,-1.2409455570301555e-05,0.0,-0.07170090079307556,0.4725344181060791,3.0,0.0,0.01117037795484066,468.4426040649414,1568.0,2.722364567260755,19.198874999999997,0.0,427.0,11.0,51.459452999999996,-14.0,0.0,-0.052534410485029326,-225.0,0.0,0.0,-9.685588836669922,0.0,0.0,0.0,-0.6352019906044006,19.218273999999997,0.0,0.005562818143516779,12.290000000000001,0.0,0.0,-0.00019951595356093897,0.11746065865921838,,,,,,,
11.900644,1602.0,0.0,16.0,0.0,0.0,11.0,1.6548130512237549,0.4573751986026764,0.0,1498.0,0.0,-2.7912569,0.0,-81.0,-3.5316864105021555e-06,-3.708542031216894e-05,0.0,-0.07108188420534134,0.4370260536670685,3.0,0.0,0.010007767006754875,460.80125427246094,1568.0,2.722364567260755,19.278623,0.0,426.0,11.0,51.459452999999996,-14.0,0.0,-0.052708943410228755,-224.0,0.0,0.0,-9.627571105957031,0.0,0.0,0.0,-0.6365696787834167,19.318274,0.0,0.00038461454096250236,12.290000000000001,0.0,0.0,0.0003819924550110964,0.11746065865921838,,,,,,,
12.000568999999999,1602.0,0.0,16.0,0.0,0.0,11.0,1.6103911399841309,0.24934370815753937,0.0,1498.0,0.0,-2.7912570999999997,0.0,-80.0,-1.1126367711843643e-05,2.657307385931504e-06,0.0,-0.06823209673166275,0.4424888789653778,3.0,0.0,0.012750553898513317,460.80125427246094,1568.0,2.7221900343355556,19.398874,0.0,427.0,11.0,51.459452999999996,-14.0,0.0,-0.05113814708343386,-224.0,0.0,0.0,-9.696349143981934,0.0,0.0,0.0,-0.6344960331916809,19.418198999999998,0.0,0.0052060699090361595,12.27,0.0,0.0,-7.497525051219091e-05,0.11746065865921838,,,,,,,
12.100743999999999,1602.0,0.0,16.0,0.0,0.0,11.0,1.6396901607513428,0.4318053722381592,0.0,1498.0,0.0,-2.7912570999999997,0.0,-80.0,-2.1946290659032797e-06,-5.923730175710542e-06,0.0,-0.06493066251277924,0.44522029161453247,3.0,0.0,0.012869792059063911,460.80125427246094,1568.0,2.7221900343355556,19.478597999999998,0.0,428.0,11.0,51.459452999999996,-14.0,0.0,-0.05166174585903215,-224.0,0.0,0.0,-9.628175735473633,0.0,0.0,0.0,-0.6308802366256714,19.518373999999998,0.0,0.005770634859800339,12.27,0.0,0.0,1.3171998571373564e-05,0.11746065865921838,,,,,,,
12.200605,1602.0,0.0,16.0,0.0,0.0,11.0,1.639469861984253,0.33569180965423584,0.0,1498.0,0.0,-2.7912572,0.0,-80.0,1.2613799828091857e-05,6.232949405138973e-06,0.0,-0.058953337371349335,0.5763280987739563,3.0,0.0,0.013026002794504166,460.80125427246094,1568.0,2.722364567260755,19.599199,0.0,424.0,11.0,51.4594531,-14.0,0.0,-0.05131268000863329,-219.0,0.0,0.0,-9.676057815551758,0.0,0.0,0.0,-0.6229971051216125,19.618235,0.0,0.006472977343946695,12.25,0.0,0.0,8.506003883807233e-05,0.11746065865921838,,,,,,,
12.300639,1602.0,0.0,16.0,0.0,0.0,11.0,1.613809585571289,0.44875600934028625,0.0,1498.0,0.0,-2.7912572,0.0,-79.0,-4.0497559901796315e-06,-1.1418399685671353e-05,0.0,-0.05474456027150154,0.4151747524738312,3.0,0.0,0.013823326677083969,451.48766326904297,1568.0,2.722364567260755,19.678622999999998,0.0,424.0,11.0,51.4594531,-14.0,0.0,-0.05166174585903215,-220.0,0.0,0.0,-9.665735244750977,0.0,0.0,0.0,-0.6183503270149231,19.718269,0.0,0.01074589230120182,12.25,0.0,0.0,-0.0001321643186346837,0.11746065865921838,,,,,,,
12.400590999999999,1602.0,0.0,16.0,0.0,0.0,11.0,1.6393324136734009,0.40571707487106323,0.0,1498.0,0.0,-2.7912573,0.0,-80.0,-1.758943413085134e-05,-1.0390073931141152e-05,0.0,-0.04905124381184578,0.45341452956199646,3.0,0.0,0.011898494325578213,451.48766326904297,1568.0,2.722539100185955,19.798768,0.0,424.0,11.0,51.4594531,-14.0,0.0,-0.05131268000863329,-219.0,0.0,0.0,-9.6510591506958,0.0,0.0,0.0,-0.6110327839851379,19.818220999999998,0.0,0.005890700500458479,12.21,0.0,0.0,0.0002724471499141965,0.11746065865921838,,,,,,,
12.500661000000001,1602.0,0.0,16.0,0.0,0.0,11.0,1.632800817489624,0.32677218317985535,0.0,1498.0,0.0,-2.7912573,0.0,-79.0,3.929991763423627e-06,-9.945017678476102e-06,0.0,-0.04537086561322212,0.5053113698959351,3.0,0.0,0.013462594710290432,451.48766326904297,1568.0,2.722539100185955,19.879206999999997,0.0,424.0,11.0,51.4594531,-14.0,0.0,-0.05061454830783556,-219.0,0.0,0.0,-9.67711353302002,0.0,0.0,0.0,-0.6045876145362854,19.918291,0.0,0.00973680429160595,12.21,0.0,0.0,-0.0001655061966005893,0.11728612573401895,,,,,,,
12.600771000000002,1602.0,0.0,16.0,0.0,0.0,11.0,1.6411497592926025,0.4524744153022766,0.0,1498.0,0.0,-2.7912573999999997,0.0,-79.0,-7.123601564693873e-05,1.4896441702939047e-05,0.0,-0.04044501855969429,0.39605486392974854,3.0,0.0,0.011474712751805782,454.0914077758789,1568.0,2.722364567260755,19.998863999999998,0.0,424.0,11.0,51.4594531,-14.0,0.0,-0.05061454830783556,-218.0,0.0,0.0,-9.612552642822266,0.0,0.0,0.0,-0.5952476263046265,20.018401,0.0,0.00648201908916235,12.18,0.0,0.0,0.0005081998281182629,0.11746065865921838,,,,,,,
12.700741,1602.0,0.0,16.0,0.0,0.0,11.0,1.5976988077163696,0.21899929642677307,0.0,1498.0,0.0,-2.7912573999999997,0.0,-79.0,7.268105361634818e-05,-4.746157721916573e-05,0.0,-0.03219190984964371,0.4506831169128418,3.0,0.0,0.0110580213367939,451.48766326904297,1568.0,2.7221900343355556,20.078613999999998,0.0,425.0,11.0,51.4594531,-14.0,0.0,-0.04939281783143953,-223.0,0.0,0.0,-9.75346565246582,0.0,0.0,0.0,-0.5880959033966064,20.118371,0.0,0.011409152299165726,12.18,0.0,0.0,-0.0005203788812024872,0.11728612573401895,,,,,,,
12.800583,1602.0,0.0,16.0,0.0,0.0,11.0,1.6620515584945679,0.5830434560775757,0.0,1498.0,0.0,-2.7912573999999997,0.0,-80.0,2.7626850324763157e-05,-2.309722520325091e-05,0.0,-0.02850467711687088,0.3386951982975006,3.0,0.0,0.01498993206769228,451.48766326904297,1568.0,2.722364567260755,20.198818,0.0,427.0,11.0,51.4594531,-14.0,0.0,-0.05288347633542819,-225.0,0.0,0.0,-9.575227737426758,0.0,0.0,0.0,-0.576048731803894,20.218213,0.0,0.015816643834114075,12.17,0.0,0.0,-0.0002415160715423739,0.11728612573401895,,,,,,,
12.900768,1602.0,0.0,16.0,0.0,0.0,11.0,1.5783824920654297,0.254993736743927,0.0,1498.0,0.0,-2.7912573999999997,0.0,-81.0,-5.6102404445890494e-05,-1.290934077347914e-05,0.0,-0.020802387967705727,0.4342946410179138,3.0,0.0,0.007474225480109453,451.48766326904297,1568.0,2.722364567260755,20.278662,0.0,427.0,11.0,51.4594531,-14.0,0.0,-0.05235987755982989,-224.0,0.0,0.0,-9.79463005065918,0.0,0.0,0.0,-0.5663240551948547,20.318398,0.0,0.003428632626309991,12.17,0.0,0.0,0.0005653595159693304,0.11711159280881951,,,,,,,
13.000751000000001,1602.0,0.0,16.0,0.0,0.0,11.0,1.624803066253662,0.3831743597984314,0.0,1498.0,0.0,-2.7912575,0.0,-80.0,5.5378715126722356e-05,-3.7386826136772616e-05,0.0,-0.014918176457285881,0.4943857192993164,3.0,0.0,0.014776906929910183,470.05738067626953,1568.0,2.7220155014103566,20.399234999999997,0.0,427.0,11.0,51.4594531,-14.0,0.0,-0.05131268000863329,-224.0,0.0,0.0,-9.634822845458984,0.0,0.0,0.0,-0.5505948662757874,20.418381,0.0,0.017087111249566078,12.14,0.0,0.0,-0.0006147151210347394,0.11711159280881951,,,,,,,
13.100634,1602.0,0.0,16.0,0.0,0.0,11.0,1.6265782117843628,0.49586793780326843,0.0,1498.0,0.0,-2.7912575,0.0,-80.0,-5.295356268081722e-05,1.3598997944912995e-05,0.0,-0.011454720050096512,0.5490139722824097,3.0,0.0,0.012001831084489822,451.48766326904297,1568.0,2.7221900343355556,20.478623,0.0,425.0,11.0,51.4594531,-14.0,0.0,-0.052708943410228755,-224.0,0.0,0.0,-9.62285041809082,0.0,0.0,0.0,-0.541448712348938,20.518264,0.0,0.009740186855196953,12.14,0.0,0.0,0.000573572077992011,0.11711159280881951,,,,,,,
13.200598,1602.0,0.0,16.0,0.0,0.0,11.0,1.5854780673980713,0.2863922417163849,0.0,1498.0,0.0,-2.7912575,0.0,-79.0,1.1258920280809243e-05,-2.9247290140046072e-05,0.0,-0.0044921888038516045,0.5162370204925537,3.0,0.0,0.012931812554597855,451.48766326904297,1568.0,2.7220155014103566,20.599096,0.0,425.0,11.0,51.4594531,-14.0,0.0,-0.05096361415823442,-220.0,0.0,0.0,-9.775457382202148,0.0,0.0,0.0,-0.5314172506332397,20.618228,0.0,0.015630444511771202,12.120000000000001,0.0,0.0,-0.0003269629059206045,0.11711159280881951,,,,,,,
13.300631,1602.0,0.0,16.0,0.0,0.0,11.0,1.6467775106430054,0.5131601691246033,0.0,1498.0,0.0,-2.7912575,0.0,-79.0,7.121667058717109e-06,-3.9458561956694795e-05,0.0,-0.003624747972935438,0.6500762701034546,3.0,0.0,0.012012206949293613,448.2161331176758,1568.0,2.7220155014103566,20.678580999999998,0.0,424.0,11.0,51.4594531,-14.0,0.0,-0.05166174585903215,-220.0,0.0,0.0,-9.58060073852539,0.0,0.0,0.0,-0.5269782543182373,20.718261,0.0,0.012249108403921127,12.120000000000001,0.0,0.0,0.0003110499007308587,0.11711159280881951,,,,,,,
13.400642000000001,1602.0,0.0,16.0,0.0,0.0,11.0,1.6571581363677979,0.28480851650238037,0.0,1498.0,0.0,-2.7912576,0.0,-78.0,-3.087257587146656e-05,2.7365392322876798e-05,0.0,-0.003987743053585291,0.5244312882423401,3.0,0.0,0.014709822833538055,448.2161331176758,1568.0,2.7221900343355556,20.798845,0.0,423.0,11.0,51.4594531,-14.0,0.0,-0.05061454830783556,-219.0,0.0,0.0,-9.639506340026855,0.0,0.0,0.0,-0.5245068669319153,20.818272,0.0,0.01642325147986412,12.08,0.0,0.0,-0.00021569033344751384,0.11693705988362008,,,,,,,
13.500744999999998,1602.0,0.0,16.0,0.0,0.0,11.0,1.6143767833709717,0.43550926446914673,0.0,1498.0,0.0,-2.7912576,0.0,-79.0,1.5346646614510852e-05,-3.588293416030198e-05,0.0,-0.0010705138556659222,0.6009108424186707,3.0,0.0,0.01090119406580925,447.4006004333496,1568.0,2.722364567260755,20.879195,0.0,423.0,11.0,51.4594531,-14.0,0.0,-0.05201081170943102,-219.0,0.0,0.0,-9.683197021484375,0.0,0.0,0.0,-0.5250247716903687,20.918374999999997,0.0,0.013961995020508766,12.08,0.0,0.0,0.00010188910707440991,0.11693705988362008,,,,,,,
13.600760000000001,1602.0,0.0,16.0,0.0,0.0,11.0,1.6347934007644653,0.33371835947036743,0.0,1498.0,0.0,-2.7912578,0.0,-78.0,-2.3564928240515285e-05,-6.365968025263505e-07,0.0,-0.0038771347608417273,0.4670715928077698,3.0,0.0,0.0105762779712677,447.4006004333496,1568.0,2.722539100185955,20.998883,0.0,425.0,11.0,51.459452999999996,-14.0,0.0,-0.05096361415823442,-219.0,0.0,0.0,-9.624553680419922,0.0,0.0,0.0,-0.5272660255432129,21.01839,0.0,0.012598849833011627,12.040000000000001,0.0,0.0,9.000813167615895e-05,0.11693705988362008,,,,,,,
13.700758,1602.0,0.0,16.0,0.0,0.0,11.0,1.6275757551193237,0.3777723014354706,0.0,1498.0,0.0,-2.7912578,0.0,-80.0,-4.950020537430649e-06,-3.3486966295131146e-07,0.0,-0.004241927061229944,0.557208240032196,3.0,0.0,0.011794866062700748,440.3734436035156,1568.0,2.722539100185955,21.078647,0.0,425.0,11.0,51.459452999999996,-14.0,0.0,-0.05096361415823442,-223.0,0.0,0.0,-9.648178100585938,0.0,0.0,0.0,-0.5284664630889893,21.118388,0.0,0.014754028059542179,12.040000000000001,0.0,0.0,-9.06955081176706e-05,0.11693705988362008,,,,,,,
13.800628,1602.0,0.0,16.0,0.0,0.0,11.0,1.629096508026123,0.38798490166664124,0.0,1498.0,0.0,-2.7912578,0.0,-80.0,2.2179878039678453e-05,-2.3946109832544335e-06,0.0,-0.002826712792739272,0.570865273475647,3.0,0.0,0.01010257937014103,447.4006004333496,1568.0,2.722713633111154,21.198891,0.0,427.0,11.0,51.459452999999996,-14.0,0.0,-0.051487212933832724,-224.0,0.0,0.0,-9.673408508300781,0.0,0.0,0.0,-0.5294407606124878,21.218258,0.0,0.013428603298962116,12.01,0.0,0.0,1.4872047543967267e-05,0.11693705988362008,,,,,,,
13.900616,1602.0,0.0,16.0,0.0,0.0,11.0,1.6232268810272217,0.39465034008026123,0.0,1498.0,0.0,-2.7912578,0.0,-80.0,-1.5041684070326955e-05,-1.3486968897501114e-05,0.0,-0.0035907672718167305,0.4288318157196045,3.0,0.0,0.009182890877127647,447.4006004333496,1568.0,2.722713633111154,21.278623,0.0,426.0,11.0,51.459452999999996,-14.0,0.0,-0.05113814708343386,-224.0,0.0,0.0,-9.653375625610352,0.0,0.0,0.0,-0.5308688282966614,21.318246,0.0,0.012632357887923717,12.01,0.0,0.0,0.000127080710818521,0.11693705988362008,,,,,,,
14.000584,1602.0,0.0,16.0,0.0,0.0,11.0,1.5997540950775146,0.42938074469566345,0.0,1498.0,0.0,-2.791258,0.0,-80.0,1.3449725441399771e-05,-1.0190726960873015e-05,0.0,-0.0030929187778383493,0.42336899042129517,3.0,0.0,0.010341656394302845,463.46363830566406,1568.0,2.722713633111154,21.399224999999998,0.0,425.0,11.0,51.459452899999995,-14.0,0.0,-0.050789081233034994,-224.0,0.0,0.0,-9.665467262268066,0.0,0.0,0.0,-0.5311408638954163,21.418214,0.0,0.015128681436181068,11.98,0.0,0.0,-4.7758049758913216e-05,0.11693705988362008,,,,,,,
14.100608999999999,1602.0,0.0,16.0,0.0,0.0,11.0,1.6197690963745117,0.3327227234840393,0.0,1498.0,0.0,-2.791258,0.0,-80.0,-1.8232006674354782e-05,-2.3725142152163027e-05,0.0,-0.0009936867281794548,0.587253749370575,3.0,0.0,0.009371485561132431,447.4006004333496,1568.0,2.722713633111154,21.478593999999998,0.0,426.0,11.0,51.459452899999995,-14.0,0.0,-0.05061454830783556,-224.0,0.0,0.0,-9.665168762207031,0.0,0.0,0.0,-0.5286725163459778,21.518238999999998,0.0,0.01263935212045908,11.98,0.0,0.0,3.333672727516816e-05,0.11693705988362008,,,,,,,
14.200638000000001,1602.0,0.0,16.0,0.0,0.0,11.0,1.6299928426742554,0.46147146821022034,0.0,1498.0,0.0,-2.7912581,0.0,-80.0,3.6562221375976033e-06,3.601276610800628e-06,0.0,0.0007123390096239746,0.4725344181060791,3.0,0.0,0.011974054388701916,454.2838821411133,1568.0,2.723062698961553,21.599193,0.0,426.0,11.0,51.459452899999995,-14.0,0.0,-0.05113814708343386,-219.0,0.0,0.0,-9.646294593811035,0.0,0.0,0.0,-0.5253730416297913,21.618268,0.0,0.016408434137701988,11.950000000000001,0.0,0.0,-9.272481931329404e-05,0.11693705988362008,,,,,,,
14.3006,1602.0,0.0,16.0,0.0,0.0,11.0,1.6159746646881104,0.31634777784347534,0.0,1498.0,0.0,-2.7912581,0.0,-79.0,-1.418689189337316e-05,-1.5835858611201784e-05,0.0,0.0033371152821928263,0.3605464994907379,3.0,0.0,0.008495602756738663,449.7549133300781,1568.0,2.723062698961553,21.678637,0.0,425.0,11.0,51.459452899999995,-14.0,0.0,-0.05096361415823442,-219.0,0.0,0.0,-9.675114631652832,0.0,0.0,0.0,-0.5237246155738831,21.71823,0.0,0.010303454473614693,11.950000000000001,0.0,0.0,0.00017870513115109737,0.11693705988362008,,,,,,,
14.40062,1602.0,0.0,16.0,0.0,0.0,11.0,1.6144285202026367,0.4107963442802429,0.0,1498.0,0.0,-2.7912581999999997,0.0,-78.0,-2.6605020332871034e-05,1.1956594040134414e-05,0.0,0.004819100257009268,0.4124433398246765,3.0,0.0,0.011883196420967579,449.7549133300781,1568.0,2.7232372318867526,21.798872,0.0,424.0,11.0,51.459452899999995,-14.0,0.0,-0.05096361415823442,-219.0,0.0,0.0,-9.66148567199707,0.0,0.0,0.0,-0.517681896686554,21.81825,0.0,0.01652970351278782,11.93,0.0,0.0,-0.00020226845018172547,0.11693705988362008,,,,,,,
14.500611,1602.0,0.0,16.0,0.0,0.0,11.0,1.6222379207611084,0.45671793818473816,0.0,1498.0,0.0,-2.7912581999999997,0.0,-80.0,3.105359979279188e-05,-2.904961130275443e-05,0.0,0.010272961109876633,0.40151768922805786,3.0,0.0,0.008778243325650692,447.4006004333496,1568.0,2.7232372318867526,21.879229,0.0,424.0,11.0,51.459452899999995,-14.0,0.0,-0.05166174585903215,-219.0,0.0,0.0,-9.682741165161133,0.0,0.0,0.0,-0.5114372372627258,21.918241,0.0,0.012556017376482487,11.93,0.0,0.0,0.00016072255200925764,0.11693705988362008,,,,,,,
14.600835,1602.0,0.0,16.0,0.0,0.0,11.0,1.6148146390914917,0.36888283491134644,0.0,1498.0,0.0,-2.7912581999999997,0.0,-80.0,-8.679286733479495e-06,7.832053982517245e-06,0.0,0.013296036049723625,0.42336899042129517,3.0,0.0,0.01165685523301363,447.4006004333496,1568.0,2.7234117648119516,21.998925999999997,0.0,423.0,11.0,51.459452899999995,-14.0,0.0,-0.05131268000863329,-219.0,0.0,0.0,-9.689055442810059,0.0,0.0,0.0,-0.5004804134368896,22.018465,0.0,0.015666993334889412,11.89,0.0,0.0,-0.00019036689640249282,0.11676252695842065,,,,,,,
14.700737,1602.0,0.0,16.0,0.0,0.0,11.0,1.6243231296539307,0.37219059467315674,0.0,1498.0,0.0,-2.7912581999999997,0.0,-79.0,-7.660525821807837e-06,-2.543489819576187e-06,0.0,0.016870569437742233,0.5353569388389587,3.0,0.0,0.00887125451117754,447.4006004333496,1568.0,2.7232372318867526,22.078637999999998,0.0,426.0,11.0,51.459452899999995,-14.0,0.0,-0.051487212933832724,-224.0,0.0,0.0,-9.647187232971191,0.0,0.0,0.0,-0.49283578991889954,22.118367,0.0,0.010853990912437439,11.89,0.0,0.0,0.0002442479247635974,0.11693705988362008,,,,,,,
14.800616000000002,1602.0,0.0,16.0,0.0,0.0,11.0,1.6362818479537964,0.41274186968803406,0.0,1498.0,0.0,-2.7912583,0.0,-80.0,-1.9543968370444563e-06,-1.079274619612077e-05,0.0,0.020706478506326675,0.5025799870491028,3.0,0.0,0.010238762944936752,447.4006004333496,1568.0,2.723062698961553,22.198826,0.0,427.0,11.0,51.459452899999995,-14.0,0.0,-0.05061454830783556,-224.0,0.0,0.0,-9.67138671875,0.0,0.0,0.0,-0.48256510496139526,22.218246,0.0,0.013683635741472244,11.86,0.0,0.0,3.7106323786057136e-05,0.11693705988362008,,,,,,,
14.900738,1602.0,0.0,16.0,0.0,0.0,11.0,1.6104280948638916,0.3142450153827667,0.0,1498.0,0.0,-2.7912583,0.0,-80.0,-6.119740880025685e-06,-4.4063435418951675e-07,0.0,0.02241692505776882,0.3769349753856659,3.0,0.0,0.009860195219516754,444.0563316345215,1568.0,2.723062698961553,22.278644,0.0,427.0,11.0,51.459452899999995,-14.0,0.0,-0.05044001538263613,-224.0,0.0,0.0,-9.655927658081055,0.0,0.0,0.0,-0.47710224986076355,22.318368,0.0,0.012766862288117409,11.86,0.0,0.0,-8.548163557387181e-06,0.11693705988362008,,,,,,,
15.00066,1602.0,0.0,16.0,0.0,0.0,11.0,1.6241750717163086,0.5068858861923218,0.0,1498.0,0.0,-2.7912584,0.0,-80.0,-3.590324840329714e-05,1.151747581258972e-05,0.0,0.024906456470489502,0.5817909240722656,3.0,0.0,0.010846513323485851,444.0563316345215,1568.0,2.723062698961553,22.399037,0.0,427.0,11.0,51.4594528,-14.0,0.0,-0.05096361415823442,-224.0,0.0,-0.006935924757272005,-9.69326400756836,0.0,0.0,-0.011131884530186653,-0.4703251123428345,22.41829,0.0,0.01374055165797472,11.83,0.0,0.0,0.00018374122663897456,0.11693705988362008,,,,,,,
15.100784,1602.0,0.0,16.0,0.0,0.0,11.0,1.6320393085479736,0.271742045879364,0.0,1498.0,0.0,-2.7912584,0.0,-80.0,4.3759480154820274e-05,-4.909641255471477e-05,0.0,0.027318553999066353,0.5107741951942444,3.0,0.0,0.009226197376847267,441.3517036437988,1568.0,2.7228881660363533,22.478603,0.0,427.0,11.0,51.4594528,-14.0,0.0,-0.04974188368183839,-224.0,0.0,-0.006935924757272005,-9.686827659606934,0.0,0.0,-0.011131884530186653,-0.46657198667526245,22.518414,0.0,0.011308081448078156,11.83,0.0,0.0,-5.8678773857255873e-05,0.11693705988362008,,,,,,,
15.200634,1602.0,0.0,16.0,0.0,0.0,11.0,1.620912790298462,0.5338546633720398,0.0,1498.0,0.0,-2.7912585,0.0,-79.0,-5.854282000375598e-05,3.6451712645859724e-05,0.0,0.026024170219898224,0.5244312882423401,3.0,0.0,0.012781646102666855,444.0563316345215,1568.0,2.723062698961553,22.599187999999998,0.0,425.0,11.0,51.4594527,-14.0,0.0,-0.050789081233034994,-219.0,0.0,-0.01387184951454401,-9.652458190917969,0.0,0.0,-0.022263769060373306,-0.4616452157497406,22.618264,0.0,0.017014967277646065,11.8,0.0,0.0,0.00013387817592848118,0.11693705988362008,,,,,,,
15.300681,1602.0,0.0,16.0,0.0,0.0,11.0,1.586132287979126,0.2359997183084488,0.0,1498.0,0.0,-2.7912585,0.0,-78.0,7.369230386596426e-05,-5.910158969145473e-05,0.0,0.032192450016736984,0.5845223665237427,3.0,0.0,0.007818145677447319,441.3517036437988,1568.0,2.7228881660363533,22.678596,0.0,423.0,11.0,51.4594527,-14.0,0.0,-0.049567350756638956,-219.0,0.0,-0.01387184951454401,-9.754659652709961,0.0,0.0,-0.022263769060373306,-0.4587530195713043,22.718311,0.0,0.012195981107652187,11.8,0.0,0.0,-0.00012899502852579134,0.11693705988362008,,,,,,,
15.400783,1602.0,0.0,16.0,0.0,0.0,11.0,1.6503111124038696,0.5025371313095093,0.0,1498.0,0.0,-2.7912586,0.0,-78.0,-3.4850800247146695e-06,-4.362578163335925e-06,0.0,0.029709575697779655,0.570865273475647,3.0,0.0,0.013464489951729774,441.3517036437988,1568.0,2.7232372318867526,22.799464,0.0,426.0,11.0,51.4594527,-14.0,0.0,-0.05061454830783556,-219.0,0.0,-0.020807774737477303,-9.576183319091797,0.0,0.0,-0.022263769060373306,-0.4515540897846222,22.818413,0.0,0.0188322514295578,11.77,0.0,0.0,-5.156589548208303e-05,0.11693705988362008,,,,,,,
15.500708,1602.0,0.0,16.0,0.0,0.0,11.0,1.5529210567474365,0.3259378671646118,0.0,1498.0,0.0,-2.7912586,0.0,-79.0,-1.5067576704414651e-05,2.8654123083050884e-06,0.0,0.0379050113260746,0.6009108424186707,3.0,0.0,0.010306098498404026,431.01595306396484,1568.0,2.7234117648119516,22.879185,0.0,425.0,11.0,51.4594527,-14.0,0.0,-0.05096361415823442,-219.0,0.0,-0.020807774737477303,-9.771259307861328,0.0,0.0,-0.022263769060373306,-0.4376593232154846,22.918338,0.0,0.016889290884137154,11.77,0.0,0.0,-0.00010292361772148634,0.11676252695842065,,,,,,,
15.60068,1602.0,0.0,16.0,0.0,0.0,11.0,1.6521649360656738,0.48477116227149963,0.0,1498.0,0.0,-2.7912586999999998,0.0,-80.0,4.995028939195369e-05,-3.069332573831235e-05,0.0,0.04440595582127571,0.6883160471916199,3.0,0.0,0.010823458433151245,435.09791564941406,1568.0,2.7234117648119516,22.999503,0.0,423.0,11.0,51.4594526,-14.0,0.0,-0.051487212933832724,-219.0,0.0,-0.02774369902908802,-9.642374038696289,0.0,0.0,-0.03339565545320511,-0.4188804030418396,23.01831,0.0,0.01672300137579441,11.72,0.0,0.0,1.548928519090073e-05,0.11676252695842065,,,,,,,
15.700685,1602.0,0.0,16.0,0.0,0.0,11.0,1.6594661474227905,0.2987685799598694,0.0,1498.0,0.0,-2.7912586999999998,0.0,-80.0,-3.564006232942965e-06,5.232543670732537e-07,0.0,0.04770893231034279,0.6418820023536682,3.0,0.0,0.011550151742994785,431.01595306396484,1568.0,2.7234117648119516,23.078635,0.0,426.0,11.0,51.4594526,-14.0,0.0,-0.05096361415823442,-223.0,0.0,-0.02774369902908802,-9.622695922851562,0.0,0.0,-0.03339565545320511,-0.40171900391578674,23.118315,0.0,0.015206190757453442,11.72,0.0,0.0,-6.66643885219062e-05,0.11676252695842065,,,,,,,
15.800638,1602.0,0.0,16.0,0.0,0.0,11.0,1.600061058998108,0.482184499502182,0.0,1498.0,0.0,-2.7912588,0.0,-81.0,-4.367091265610464e-05,7.153995516438247e-06,0.0,0.05574462190270424,0.6992416977882385,3.0,0.0,0.01084644440561533,434.39862060546875,1568.0,2.7234117648119516,23.199462999999998,0.0,428.0,11.0,51.4594525,-14.0,0.0,-0.051487212933832724,-224.0,0.0,-0.03467962145805359,-9.681421279907227,0.0,0.0,-0.04452753812074661,-0.3794042766094208,23.218268,0.0,0.014968570321798325,11.69,0.0,0.0,0.0001735938254193005,0.11676252695842065,,,,,,,
15.900623,1602.0,0.0,16.0,0.0,0.0,11.0,1.6240628957748413,0.2513715326786041,0.0,1498.0,0.0,-2.7912588,0.0,-80.0,4.6295103234016736e-05,-2.3512043751949778e-05,0.0,0.0626467913389206,0.6719275712966919,3.0,0.0,0.00916648656129837,431.01595306396484,1568.0,2.7232372318867526,23.278624999999998,0.0,426.0,11.0,51.4594525,-14.0,0.0,-0.05044001538263613,-223.0,0.0,-0.03467962145805359,-9.71245288848877,0.0,0.0,-0.04452753812074661,-0.3624940514564514,23.318253,0.0,0.013350207358598709,11.69,0.0,0.0,-0.00015067812396771867,0.11676252695842065,,,,,,,
16.000614,1602.0,0.0,16.0,0.0,0.0,11.0,1.6155540943145752,0.49480104446411133,0.0,1498.0,0.0,-2.7912589,0.0,-80.0,-4.696643634059243e-05,2.4641092432152853e-06,0.0,0.06838870048522949,0.5790595412254333,3.0,0.0,0.009662697091698647,431.01595306396484,1568.0,2.7232372318867526,23.399542999999998,0.0,426.0,11.0,51.459452399999996,-14.0,0.0,-0.05096361415823442,-224.0,0.0,-0.041615549474954605,-9.642125129699707,0.0,0.0,-0.055659420788288116,-0.33993998169898987,23.418243999999998,0.0,0.012116030789911747,11.64,0.0,0.0,0.00025559226930108253,0.11676252695842065,,,,,,,
16.10064,1602.0,0.0,16.0,0.0,0.0,11.0,1.588746190071106,0.37110403180122375,0.0,1498.0,0.0,-2.7912589,0.0,-80.0,-2.101406262164396e-06,-4.393889689808906e-06,0.0,0.07402555644512177,0.573596715927124,3.0,0.0,0.01050119660794735,430.1507263183594,1568.0,2.7232372318867526,23.478657,0.0,426.0,11.0,51.459452399999996,-14.0,0.0,-0.050265482457436686,-224.0,0.0,-0.041615549474954605,-9.728281021118164,0.0,0.0,-0.055659420788288116,-0.3222754895687103,23.518269999999998,0.0,0.01461221743375063,11.64,0.0,0.0,-0.000143224881446759,0.11676252695842065,,,,,,,
16.200782,1602.0,0.0,16.0,0.0,0.0,11.0,1.614367127418518,0.40713971853256226,0.0,1498.0,0.0,-2.7912589999999997,0.0,-79.0,5.491854408573554e-06,-3.0818986337660075e-05,0.0,0.08169794827699661,0.5025799870491028,3.0,0.0,0.0084439218044281,430.1507263183594,1568.0,2.7232372318867526,23.599835,0.0,424.0,11.0,51.459452299999995,-14.0,0.0,-0.050789081233034994,-219.0,0.0,-0.04855147376656532,-9.710858345031738,0.0,0.0,-0.06679131090641022,-0.2990363836288452,23.618412,0.0,0.01077582873404026,11.61,0.0,0.0,0.00010947201290112862,0.11676252695842065,,,,,,,
16.300864,1602.0,0.0,16.0,0.0,0.0,11.0,1.6369571685791016,0.4024549126625061,0.0,1498.0,0.0,-2.7912589999999997,0.0,-79.0,1.4687532937558366e-05,3.2578728463379875e-06,0.0,0.08338193595409393,0.4725344181060791,3.0,0.0,0.011731335893273354,420.28577423095703,1568.0,2.7232372318867526,23.678648,0.0,426.0,11.0,51.459452299999995,-14.0,0.0,-0.050265482457436686,-219.0,0.0,-0.04855147376656532,-9.634725570678711,0.0,0.0,-0.06679131090641022,-0.28183403611183167,23.718494,0.0,0.013657266274094582,11.61,0.0,0.0,-6.068644199262881e-05,0.11676252695842065,,,,,,,
16.400586,1602.0,0.0,16.0,0.0,0.0,11.0,1.6095027923583984,0.5029779672622681,0.0,1498.0,0.0,-2.7912589999999997,0.0,-79.0,-3.584972185624129e-05,-2.2806052185837106e-06,0.0,0.09062317758798599,0.6500762701034546,3.0,0.0,0.010094593279063702,430.1507263183594,1568.0,2.7232372318867526,23.799398,0.0,423.0,11.0,51.4594521,-14.0,0.0,-0.05096361415823442,-220.0,0.0,-0.04855147376656532,-9.686294555664062,0.0,0.0,-0.08905507624149323,-0.2589081823825836,23.818216,0.0,0.01207217201590538,11.58,0.0,0.0,0.00013715544564626877,0.11676252695842065,,,,,,,
16.500631,1602.0,0.0,16.0,0.0,0.0,11.0,1.6067712306976318,0.2741960287094116,0.0,1498.0,0.0,-2.7912589999999997,0.0,-79.0,3.486479194106802e-05,-2.212271857939242e-05,0.0,0.0968366488814354,0.521699845790863,3.0,0.0,0.007961786352097988,420.28577423095703,1568.0,2.7232372318867526,23.879199999999997,0.0,424.0,11.0,51.4594521,-14.0,0.0,-0.04974188368183839,-219.0,0.0,-0.04855147376656532,-9.72439193725586,0.0,0.0,-0.08905507624149323,-0.24222221970558167,23.918260999999998,0.0,0.008565906435251236,11.58,0.0,0.0,-9.088434645973601e-05,0.11676252695842065,,,,,,,
16.600644,1602.0,0.0,16.0,0.0,0.0,11.0,1.6133838891983032,0.5168282389640808,0.0,1498.0,0.0,-2.7912591,0.0,-79.0,1.7324001868182975e-05,-5.800474247955619e-06,0.0,0.10140249878168106,0.6992416977882385,3.0,0.0,0.01056897733360529,420.28577423095703,1568.0,2.7232372318867526,23.999534,0.0,427.0,11.0,51.459452,-14.0,0.0,-0.05131268000863329,-219.0,0.0,-0.05548739805817604,-9.638357162475586,0.0,0.0,-0.10018695890903473,-0.21971900761127472,24.018273999999998,0.0,0.013149566017091274,11.55,0.0,0.0,-0.00013735186678037837,0.11676252695842065,,,,,,,
16.700733,1602.0,0.0,16.0,0.0,0.0,11.0,1.6240103244781494,0.33856773376464844,0.0,1498.0,0.0,-2.7912591,0.0,-80.0,-1.0796812905198065e-05,-9.441885609894809e-06,0.0,0.10678461194038391,0.5408197641372681,3.0,0.0,0.0067054154351353645,420.28577423095703,1568.0,2.7232372318867526,24.078666,0.0,424.0,11.0,51.459452,-14.0,0.0,-0.05096361415823442,-223.0,0.0,-0.05548739805817604,-9.666186332702637,0.0,0.0,-0.10018695890903473,-0.20341522991657257,24.118363,0.0,0.005258369725197554,11.55,0.0,0.0,0.0002675597844310448,0.1165879940332212,,,,,,,
16.800572,1602.0,0.0,16.0,0.0,0.0,11.0,1.6338872909545898,0.4153698980808258,0.0,1498.0,0.0,-2.7912591,0.0,-80.0,1.816226611858705e-05,6.889092545658282e-06,0.0,0.11053749173879623,0.622762143611908,3.0,0.0,0.00964589137583971,420.28577423095703,1568.0,2.723062698961553,24.19946,0.0,427.0,11.0,51.4594519,-14.0,0.0,-0.05044001538263613,-224.0,0.0,-0.05548739805817604,-9.67294692993164,0.0,0.0,-0.11131884157657623,-0.1811581552028656,24.218201999999998,0.0,0.010991813614964485,11.52,0.0,0.0,-9.018740415945048e-05,0.1165879940332212,,,,,,,
16.900772,1602.0,0.0,16.0,0.0,0.0,11.0,1.602510929107666,0.3432360291481018,0.0,1498.0,0.0,-2.7912591,0.0,-80.0,-2.42743642675639e-05,2.182885338634663e-06,0.0,0.1150558814406395,0.5271626710891724,3.0,0.0,0.007102280389517546,420.28577423095703,1568.0,2.723062698961553,24.27861,0.0,427.0,11.0,51.4594519,-14.0,0.0,-0.05044001538263613,-224.0,0.0,-0.05548739805817604,-9.703104019165039,0.0,0.0,-0.11131884157657623,-0.16523876786231995,24.318402,0.0,0.0070517463609576225,11.52,0.0,0.0,0.00015983165115362926,0.1165879940332212,,,,,,,
17.000629,1602.0,0.0,16.0,0.0,0.0,11.0,1.6189180612564087,0.41378575563430786,0.0,1498.0,0.0,-2.7912592,0.0,-80.0,4.405891104001694e-05,-1.9059597718272204e-05,0.0,0.11927154660224915,0.35781508684158325,3.0,0.0,0.009953150525689125,420.28577423095703,1568.0,2.7228881660363533,24.399583999999997,0.0,427.0,11.0,51.459451699999995,-14.0,0.0,-0.05044001538263613,-224.0,0.0,-0.06242332234978676,-9.670184135437012,0.0,0.0,-0.13358262181282043,-0.14314137399196625,24.418259,0.0,0.01189508568495512,11.48,0.0,0.0,-0.000324221657514383,0.1165879940332212,,,,,,,
17.100629,1602.0,0.0,16.0,0.0,0.0,11.0,1.6332629919052124,0.38920581340789795,0.0,1498.0,0.0,-2.7912592,0.0,-80.0,-3.886610451655958e-05,8.696899657604671e-06,0.0,0.12243708968162537,0.3769349753856659,3.0,0.0,0.007371037732809782,418.4917678833008,1568.0,2.723062698961553,24.478657,0.0,428.0,11.0,51.459451699999995,-14.0,0.0,-0.05113814708343386,-223.0,0.0,-0.06242332234978676,-9.652740478515625,0.0,0.0,-0.13358262181282043,-0.12681473791599274,24.518259,0.0,0.005876361392438412,11.48,0.0,0.0,0.00039670310408613786,0.1165879940332212,,,,,,,
17.200603,1602.0,0.0,16.0,0.0,0.0,11.0,1.587587594985962,0.39888834953308105,0.0,1498.0,0.0,-2.7912592,0.0,-79.0,-2.1512586244296726e-06,-2.0408133890216664e-06,0.0,0.12885244190692902,0.5053113698959351,3.0,0.0,0.008157623000442982,420.28577423095703,1568.0,2.7228881660363533,24.599656,0.0,425.0,11.0,51.4594515,-14.0,0.0,-0.050265482457436686,-219.0,0.0,-0.06242332234978676,-9.731583595275879,0.0,0.0,-0.15584638714790344,-0.10404561460018158,24.618233,0.0,0.009572677314281464,11.44,0.0,0.0,-0.00018121837564734236,0.1165879940332212,,,,,,,
17.300629,1602.0,0.0,16.0,0.0,0.0,11.0,1.631514549255371,0.4856235682964325,0.0,1498.0,0.0,-2.7912592,0.0,-79.0,2.0168893956659177e-05,-2.336404926992525e-05,0.0,0.13212604820728302,0.37966638803482056,3.0,0.0,0.007897070609033108,418.4917678833008,1568.0,2.7228881660363533,24.678621,0.0,424.0,11.0,51.4594515,-14.0,0.0,-0.05061454830783556,-219.0,0.0,-0.06242332234978676,-9.631918907165527,0.0,0.0,-0.15584638714790344,-0.08729322999715805,24.718259,0.0,0.007330615073442459,11.44,0.0,0.0,0.00010256323597998154,0.1165879940332212,,,,,,,
17.400608,1602.0,0.0,16.0,0.0,0.0,11.0,1.6118556261062622,0.30185890197753906,0.0,1498.0,0.0,-2.7912592,0.0,-79.0,-1.1745557948046797e-05,3.2506827055699226e-06,0.0,0.13685183227062225,0.5025799870491028,3.0,0.0,0.008261123672127724,418.4917678833008,1568.0,2.723062698961553,24.799471,0.0,424.0,11.0,51.4594514,-14.0,0.0,-0.050265482457436686,-219.0,0.0,-0.06242332234978676,-9.674215316772461,0.0,0.0,-0.16697826981544495,-0.06337542086839676,24.818237999999997,0.0,0.006920818705111742,11.39,0.0,0.0,-4.81833362992015e-05,0.1165879940332212,,,,,,,
17.500818,1602.0,0.0,16.0,0.0,0.0,11.0,1.5954997539520264,0.5075088739395142,0.0,1498.0,0.0,-2.7912592,0.0,-79.0,-1.2937125041916556e-05,-6.400411364728751e-06,0.0,0.14210446178913116,0.6364191770553589,3.0,0.0,0.00896124355494976,414.8976135253906,1568.0,2.723062698961553,24.879198,0.0,425.0,11.0,51.4594514,-14.0,0.0,-0.05131268000863329,-219.0,0.0,-0.06242332234978676,-9.681865692138672,0.0,0.0,-0.16697826981544495,-0.045429080724716187,24.918447999999998,0.0,0.009616275317966938,11.39,0.0,0.0,-0.00020720937472122367,0.1165879940332212,,,,,,,
17.600597,1602.0,0.0,15.0,0.0,0.0,11.0,1.6110023260116577,0.41325560212135315,0.0,1498.0,0.0,-2.7912592,0.0,-80.0,-6.734453977357081e-06,-2.1318312755200713e-05,0.0,0.14914195239543915,0.5135056376457214,3.0,0.0,0.004188180435448885,414.8976135253906,1568.0,2.723062698961553,24.999325,0.0,425.0,11.0,51.4594513,-14.0,0.0,-0.05113814708343386,-219.0,0.0,-0.06242332234978676,-9.697026252746582,0.0,0.0,-0.17811015248298645,-0.019962217658758163,25.018227,0.0,0.0005522737046703696,11.35,0.0,0.0,0.00040647685977372174,0.1165879940332212,,,,,,,
17.700779,1602.0,0.0,15.0,0.0,0.0,11.0,1.6120365858078003,0.41190236806869507,0.0,1498.0,0.0,-2.7912592,0.0,-79.0,3.192716100551961e-06,3.340716424089654e-06,0.0,0.15215133130550385,0.7484071254730225,3.0,0.0,0.007645269390195608,414.8976135253906,1568.0,2.7228881660363533,25.07863,0.0,426.0,11.0,51.4594513,-14.0,0.0,-0.05061454830783556,-222.0,0.0,-0.06242332234978676,-9.708791732788086,0.0,0.0,-0.17811015248298645,-0.0010985468979924917,25.118409,0.0,0.008302869275212288,11.35,0.0,0.0,-0.00034585945125978904,0.11641346110802178,,,,,,,
17.800691,1602.0,0.0,15.0,0.0,0.0,11.0,1.6440908908843994,0.4479292631149292,0.0,1498.0,0.0,-2.7912592,0.0,-81.0,-7.476769088237222e-06,-3.0235802172682884e-05,0.0,0.15838052332401276,0.6391506195068359,3.0,0.0,0.0034408390056341887,416.267765045166,1568.0,2.7228881660363533,25.199258999999998,0.0,425.0,11.0,51.4594512,-14.0,0.0,-0.05096361415823442,-224.0,0.0,-0.06242332234978676,-9.599543571472168,0.0,0.0,-0.18924203515052795,0.02543877623975277,25.218321,0.0,0.00024125349591486156,11.31,0.0,0.0,0.0002752765797713071,0.1165879940332212,,,,,,,
17.900638,1602.0,0.0,15.0,0.0,0.0,11.0,1.5975979566574097,0.3220040798187256,0.0,1498.0,0.0,-2.7912592,0.0,-80.0,2.4937109841831234e-06,2.260719641063239e-05,0.0,0.16225092113018036,0.5517454147338867,3.0,0.0,0.00570746511220932,416.267765045166,1568.0,2.722713633111154,25.278669999999998,0.0,426.0,11.0,51.4594512,-14.0,0.0,-0.05061454830783556,-224.0,0.0,-0.06242332234978676,-9.729461669921875,0.0,0.0,-0.18924203515052795,0.04497097060084343,25.318268,0.0,0.004722198471426964,11.31,0.0,0.0,-0.0002499234129799863,0.11641346110802178,,,,,,,
18.000601,1602.0,0.0,15.0,0.0,0.0,11.0,1.6400471925735474,0.610809862613678,0.0,1498.0,0.0,-2.7912592999999997,0.0,-81.0,-1.0551312901359714e-05,-3.1105263151127334e-05,0.0,0.1688767522573471,0.6418820023536682,3.0,0.0,0.002863092813640833,429.8795051574707,1568.0,2.722713633111154,25.399497,0.0,428.0,11.0,51.459451099999995,-14.0,0.0,-0.05166174585903215,-224.0,0.0,-0.06935924291610718,-9.626655578613281,0.0,0.0,-0.20037391781806946,0.07235000282526016,25.418231,0.0,0.0012775920331478119,11.27,0.0,0.0,0.00022449601122346535,0.11641346110802178,,,,,,,
18.100639,1602.0,0.0,15.0,0.0,0.0,11.0,1.5556892156600952,0.0806136205792427,0.0,1498.0,0.0,-2.7912592999999997,0.0,-80.0,-6.686429627743805e-05,2.202316700409829e-05,0.0,0.17248094081878662,0.4861914813518524,3.0,0.0,0.0001475291937822476,416.267765045166,1568.0,2.722539100185955,25.478648,0.0,427.0,11.0,51.459451099999995,-14.0,0.0,-0.049567350756638956,-224.0,0.0,-0.06935924291610718,-9.749441146850586,0.0,0.0,-0.20037391781806946,0.09230434149503708,25.518269,0.0,-0.003822289640083909,11.27,0.0,0.0,0.0002284982299954338,0.11641346110802178,,,,,,,
18.200782,1602.0,0.0,15.0,0.0,0.0,11.0,1.619172215461731,0.7409989833831787,0.0,1498.0,0.0,-2.7912594,0.0,-80.0,3.963857809000995e-05,-2.745323242621413e-06,0.0,0.17711229622364044,0.37147215008735657,3.0,0.0,0.0073605868965387344,416.267765045166,1568.0,2.722539100185955,25.599819999999998,0.0,423.0,11.0,51.4594509,-14.0,0.0,-0.05166174585903215,-220.0,0.0,-0.07629517465829849,-9.728178977966309,0.0,0.0,-0.22263768315315247,0.12055395543575287,25.618412,0.0,0.010034183971583843,11.22,0.0,0.0,-0.00040580177184407597,0.11641346110802178,,,,,,,
18.300627,1602.0,0.0,15.0,0.0,0.0,11.0,1.6215462684631348,0.23576728999614716,0.0,1498.0,0.0,-2.7912594,0.0,-79.0,-2.417152925391408e-05,-3.1805486857937894e-05,0.0,0.182676300406456,0.5408197641372681,3.0,0.0,-0.0018190809059888124,414.8976135253906,1568.0,2.722364567260755,25.678625999999998,0.0,422.0,11.0,51.4594509,-14.0,0.0,-0.05044001538263613,-219.0,0.0,-0.07629517465829849,-9.647150993347168,0.0,0.0,-0.22263768315315247,0.14106552302837372,25.718256999999998,0.0,-0.007292645983397961,11.22,0.0,0.0,0.000610523568154023,0.11641346110802178,,,,,,,
18.400623,1602.0,0.0,15.0,0.0,0.0,11.0,1.653266429901123,0.5186102986335754,0.0,1498.0,0.0,-2.7912592999999997,0.0,-79.0,6.730115002970588e-06,6.7931149605050284e-06,0.0,0.18539251387119293,0.37420356273651123,3.0,0.0,0.007058935239911079,416.267765045166,1568.0,2.722364567260755,25.799442,0.0,424.0,11.0,51.4594507,-14.0,0.0,-0.04991641660703782,-219.0,0.0,-0.06935924291610718,-9.638558387756348,0.0,0.0,-0.24490146338939667,0.1704666167497635,25.818253,0.0,0.01042612362653017,11.18,0.0,0.0,-0.0005977595754031265,0.11641346110802178,,,,,,,
18.50078,1602.0,0.0,15.0,0.0,0.0,11.0,1.611723780632019,0.4036114811897278,0.0,1498.0,0.0,-2.7912592999999997,0.0,-79.0,-1.836447593826309e-05,-1.7701913228755662e-06,0.0,0.1921774446964264,0.3468894362449646,3.0,0.0,-0.0009826970053836703,414.8976135253906,1568.0,2.722539100185955,25.879255,0.0,423.0,11.0,51.4594507,-14.0,0.0,-0.05096361415823442,-219.0,0.0,-0.06935924291610718,-9.677583694458008,0.0,0.0,-0.24490146338939667,0.19136443734169006,25.918409999999998,0.0,-0.0032361794728785753,11.18,0.0,0.0,0.0005665405784986587,0.11641346110802178,,,,,,,
18.600772,1602.0,0.0,15.0,0.0,0.0,11.0,1.6328363418579102,0.2700875401496887,0.0,1498.0,0.0,-2.7912592999999997,0.0,-79.0,1.2703767258136121e-05,3.4902738918537344e-06,0.0,0.19601382315158844,0.3987862765789032,3.0,0.0,0.004063989035785198,414.8976135253906,1568.0,2.7221900343355556,25.999598,0.0,424.0,11.0,51.459450499999996,-14.0,0.0,-0.04921828490624009,-218.0,0.0,-0.06935924291610718,-9.671828269958496,0.0,0.0,-0.26716524362564087,0.2211700826883316,26.018402,0.0,0.005977155175060034,11.15,0.0,0.0,-0.0005013549319532438,0.11641346110802178,,,,,,,
18.700783,1602.0,0.0,15.0,0.0,0.0,11.0,1.6331912279129028,0.562782883644104,0.0,1498.0,0.0,-2.7912592999999997,0.0,-80.0,-5.5277318649183814e-05,2.11561157768233e-05,0.0,0.1995609551668167,0.570865273475647,3.0,0.0,0.0019119076896458864,414.8976135253906,1568.0,2.7221900343355556,26.078632,0.0,426.0,11.0,51.459450499999996,-14.0,0.0,-0.05113814708343386,-223.0,0.0,-0.06935924291610718,-9.636201858520508,0.0,0.0,-0.26716524362564087,0.24188528954982758,26.118413,0.0,0.0018466224428266287,11.15,0.0,0.0,0.00043489986262651274,0.11641346110802178,,,,,,,
18.80061,1602.0,0.0,15.0,0.0,0.0,11.0,1.573712944984436,0.2247796356678009,0.0,1498.0,0.0,-2.7912594,0.0,-80.0,7.915428731600678e-05,-2.3672684348037307e-05,0.0,0.20795148611068726,0.5353569388389587,3.0,0.0,0.0006994069553911686,426.9915885925293,1568.0,2.7220155014103566,26.199261,0.0,426.0,11.0,51.4594503,-14.0,0.0,-0.049567350756638956,-223.0,0.0,-0.07629517465829849,-9.770797729492188,0.0,0.0,-0.2894290089607239,0.2716972827911377,26.218239999999998,0.0,0.004185850266367197,11.1,0.0,0.0,-0.00042670079195945203,0.11641346110802178,,,,,,,
18.900781,1602.0,0.0,15.0,0.0,0.0,11.0,1.653743028640747,0.5403708219528198,0.0,1498.0,0.0,-2.7912594,0.0,-80.0,-6.893148892399184e-05,4.711402445648384e-05,0.0,0.20589281618595123,0.4889228940010071,3.0,0.0,0.004827900789678097,414.8976135253906,1568.0,2.7220155014103566,26.278616,0.0,427.0,11.0,51.4594503,-14.0,0.0,-0.05131268000863329,-224.0,0.0,-0.07629517465829849,-9.639618873596191,0.0,0.0,-0.2894290089607239,0.29244354367256165,26.318410999999998,0.0,0.0054023670963943005,11.1,0.0,0.0,0.00020166423250569747,0.11641346110802178,,,,,,,
19.000685,1602.0,0.0,15.0,0.0,0.0,11.0,1.6173310279846191,0.39283260703086853,0.0,1498.0,0.0,-2.7912592999999997,0.0,-80.0,2.602797432833477e-05,-2.449203225494419e-05,0.0,0.2158077508211136,0.6200307011604309,3.0,0.0,-0.0013363998150452971,414.8976135253906,1568.0,2.7214919026347584,26.399593,0.0,426.0,11.0,51.4594502,-14.0,0.0,-0.050265482457436686,-223.0,0.0,-0.06935924291610718,-9.646905899047852,0.0,0.0,-0.3005608916282654,0.3224181830883026,26.418315,0.0,-0.0009897807613015175,11.06,0.0,0.0,5.8010139021804155e-05,0.1165879940332212,,,,,,,
19.100776,1602.0,0.0,15.0,0.0,0.0,11.0,1.6236381530761719,0.3771517872810364,0.0,1498.0,0.0,-2.7912592999999997,0.0,-80.0,-5.5607661806127666e-05,3.6638437884032855e-06,0.0,0.2182280719280243,0.554476797580719,3.0,0.0,-0.0009113455889746547,414.8976135253906,1568.0,2.7214919026347584,26.478661,0.0,428.0,11.0,51.4594502,-14.0,0.0,-0.05009094953223726,-223.0,0.0,-0.06935924291610718,-9.673393249511719,0.0,0.0,-0.3005608916282654,0.34335899353027344,26.518406,0.0,-0.0008102072752080858,11.06,0.0,0.0,0.00023163497017706248,0.1165879940332212,,,,,,,
19.200683,1602.0,0.0,15.0,0.0,0.0,11.0,1.6073040962219238,0.3225771188735962,0.0,1498.0,0.0,-2.7912592999999997,0.0,-79.0,6.820821409827949e-05,-9.02725703736318e-06,0.0,0.22191184759140015,0.6664647459983826,3.0,0.0,0.0002851570025086403,414.8976135253906,1568.0,2.7214919026347584,26.599245999999997,0.0,424.0,11.0,51.45945,-14.0,0.0,-0.04974188368183839,-219.0,0.0,-0.06935924291610718,-9.683952331542969,0.0,0.0,-0.3228246569633484,0.37345796823501587,26.618313,0.0,0.004050483927130699,11.03,0.0,0.0,-0.00043128547969200335,0.1165879940332212,,,,,,,
19.300804,1602.0,0.0,15.0,0.0,0.0,11.0,1.653734564781189,0.48870649933815,0.0,1498.0,0.0,-2.7912592999999997,0.0,-79.0,-2.9872317825751636e-05,8.821467132054271e-06,0.0,0.2223971039056778,0.6773903965950012,3.0,0.0,0.001692284713499248,414.8976135253906,1568.0,2.7216664355599574,26.678656999999998,0.0,422.0,11.0,51.45945,-14.0,0.0,-0.051487212933832724,-220.0,0.0,-0.06935924291610718,-9.58122444152832,0.0,0.0,-0.3228246569633484,0.39363303780555725,26.718434,0.0,0.0027128213550895452,11.03,0.0,0.0,-2.1196467933843086e-05,0.1165879940332212,,,,,,,
19.400773,1602.0,0.0,15.0,0.0,0.0,11.0,1.6737124919891357,0.2920594811439514,0.0,1498.0,0.0,-2.7912592999999997,0.0,-79.0,-2.4943129140178218e-05,-8.230640743985909e-06,0.0,0.22891809046268463,0.6200307011604309,3.0,0.0,-0.002988872118294239,414.8976135253906,1568.0,2.7214919026347584,26.799004,0.0,424.0,11.0,51.459449799999994,-14.0,0.0,-0.05044001538263613,-219.0,0.0,-0.06935924291610718,-9.67094898223877,0.0,0.0,-0.3450884222984314,0.42306840419769287,26.818403,0.0,-0.0035864929668605328,11.0,0.0,0.0,0.0002383695623189048,0.1165879940332212,,,,,,,
19.500814,1602.0,0.0,15.0,0.0,0.0,11.0,1.6255483627319336,0.5230752229690552,0.0,1498.0,0.0,-2.7912592999999997,0.0,-79.0,3.486809163406903e-05,-6.493690170800356e-07,0.0,0.23072804510593414,0.7101673483848572,3.0,0.0,0.00046529746032319963,414.1072883605957,1568.0,2.7214919026347584,26.879215,0.0,423.0,11.0,51.459449799999994,-14.0,0.0,-0.05096361415823442,-220.0,0.0,-0.06935924291610718,-9.600629806518555,0.0,0.0,-0.3450884222984314,0.4424930810928345,26.918443999999997,0.0,0.005894524976611137,11.0,0.0,0.0,-0.0003245671662554153,0.1165879940332212,,,,,,,
19.60064,1602.0,0.0,15.0,0.0,0.0,11.0,1.630630612373352,0.3864595293998718,0.0,1498.0,0.0,-2.7912592999999997,0.0,-80.0,-3.535048480704605e-05,1.7793269415059896e-05,0.0,0.23350413143634796,0.7047045230865479,3.0,0.0,-0.003953143022954464,414.1072883605957,1568.0,2.7214919026347584,26.999005999999998,0.0,425.0,11.0,51.4594496,-14.0,0.0,-0.05113814708343386,-219.0,0.0,-0.06935924291610718,-9.644341468811035,0.0,0.0,-0.3673521876335144,0.47129419445991516,27.018269999999998,0.0,-0.003823640523478389,10.950000000000001,0.0,0.0,0.0003915096798861582,0.1165879940332212,,,,,,,
19.700677,1602.0,0.0,15.0,0.0,0.0,11.0,1.631337285041809,0.364741712808609,0.0,1498.0,0.0,-2.7912592999999997,0.0,-80.0,6.254017457311086e-05,-3.087418101769242e-05,0.0,0.2384696751832962,0.6500762701034546,3.0,0.0,-0.0030481056310236454,413.3256149291992,1568.0,2.7214919026347584,27.078654999999998,0.0,427.0,11.0,51.4594496,-14.0,0.0,-0.050789081233034994,-223.0,0.0,-0.06935924291610718,-9.689475059509277,0.0,0.0,-0.3673521876335144,0.49072548747062683,27.118306999999998,0.0,0.0026918582152575254,10.950000000000001,0.0,0.0,-0.0004328420570376343,0.1165879940332212,,,,,,,
19.800684,1602.0,0.0,15.0,0.0,0.0,11.0,1.6393985748291016,0.44356590509414673,0.0,1498.0,0.0,-2.7912592999999997,0.0,-80.0,-1.62806507258803e-05,-1.7408152167031488e-05,0.0,0.241887167096138,0.6965102553367615,3.0,0.0,-0.006421373225748539,413.3256149291992,1568.0,2.7214919026347584,27.199001,0.0,425.0,11.0,51.459449299999996,-14.0,0.0,-0.052185344634630454,-223.0,0.0,-0.06935924291610718,-9.660844802856445,0.0,0.0,-0.4007478356361389,0.5194782614707947,27.218314,0.0,-0.0031527515966445208,10.92,0.0,0.0,0.0002105689660902607,0.1165879940332212,,,,,,,
19.900785,1602.0,0.0,15.0,0.0,0.0,11.0,1.651469111442566,0.5581519603729248,0.0,1498.0,0.0,-2.7912592999999997,0.0,-81.0,-1.0187820427105804e-05,-5.0605164670137634e-05,0.0,0.24286994338035583,0.7347500920295715,3.0,0.0,-0.0033933990634977818,413.3256149291992,1568.0,2.7214919026347584,27.278617999999998,0.0,426.0,11.0,51.459449299999996,-14.0,0.0,-0.05183627878423159,-223.0,0.0,-0.06935924291610718,-9.659988403320312,0.0,0.0,-0.4007478356361389,0.5383663773536682,27.318414999999998,0.0,0.0028129261918365955,10.92,0.0,0.0,-7.579448463658053e-05,0.1165879940332212,,,,,,,
20.000684,1602.0,0.0,15.0,0.0,0.0,11.0,1.6488981246948242,0.3307897746562958,0.0,1498.0,0.0,-2.7912592999999997,0.0,-80.0,-1.6942021766702327e-05,-1.5896819626663247e-05,0.0,0.24525202810764313,0.8030353784561157,3.0,0.0,-0.007109282072633505,413.3256149291992,1568.0,2.721142836784359,27.399472,0.0,427.0,11.0,51.4594491,-14.0,0.0,-0.05096361415823442,-223.0,0.0,-0.06935924291610718,-9.658441543579102,0.0,0.0,-0.4230116009712219,0.5664357542991638,27.418314,0.0,-0.003921216819435358,10.9,0.0,0.0,0.0002209932326837587,0.11641346110802178,,,,,,,
20.100737,1602.0,0.0,15.0,0.0,0.0,11.0,1.6297016143798828,0.44571852684020996,0.0,1498.0,0.0,-2.7912592999999997,0.0,-81.0,2.9299572190819215e-06,-1.660106839002246e-05,0.0,0.24672916531562805,0.7620642185211182,3.0,0.0,-0.005556936841458082,408.93664932250977,1568.0,2.721317369709559,27.478644,0.0,426.0,11.0,51.4594491,-14.0,0.0,-0.05166174585903215,-224.0,0.0,-0.06935924291610718,-9.666505813598633,0.0,0.0,-0.4230116009712219,0.584118664264679,27.518366999999998,0.0,0.0013472579885274172,10.9,0.0,0.0,-0.00023187739195744238,0.11641346110802178,,,,,,,
20.200689,1602.0,0.0,15.0,0.0,0.0,11.0,1.6190733909606934,0.3537238836288452,0.0,1498.0,0.0,-2.7912592999999997,0.0,-80.0,2.9518933709059326e-06,-1.7961376988843686e-05,0.0,0.24887269735336304,0.7948411703109741,3.0,0.0,-0.008904845453798771,408.93664932250977,1568.0,2.721317369709559,27.599415,0.0,423.0,11.0,51.459449,-14.0,0.0,-0.05201081170943102,-220.0,0.0,-0.06935924291610718,-9.668054580688477,0.0,0.0,-0.4341434836387634,0.6108807325363159,27.618319,0.0,-0.0028799064457416534,10.86,0.0,0.0,0.00012922727489819767,0.11641346110802178,,,,,,,
20.300646,1602.0,0.0,15.0,0.0,0.0,11.0,1.6195811033248901,0.5196678638458252,0.0,1498.0,0.0,-2.7912592999999997,0.0,-80.0,-3.4360918254293766e-05,1.0809874528632189e-05,0.0,0.24977853894233704,0.7620642185211182,3.0,0.0,-0.0071558402851223946,407.4813690185547,1568.0,2.7214919026347584,27.678662,0.0,422.0,11.0,51.459449,-14.0,0.0,-0.052534410485029326,-219.0,0.0,-0.06935924291610718,-9.659810066223145,0.0,0.0,-0.4341434836387634,0.6279512047767639,27.718276,0.0,0.0006034552934579551,10.86,0.0,0.0,3.2620279400492393e-06,0.11641346110802178,,,,,,,
20.400635,1602.0,0.0,15.0,0.0,0.0,11.0,1.614074945449829,0.3575536608695984,0.0,1498.0,0.0,-2.7912592,0.0,-80.0,-2.1002196476577737e-05,-1.0209107916989806e-05,0.0,0.2522658705711365,0.860395073890686,3.0,0.0,-0.010073374956846237,408.93664932250977,1568.0,2.721317369709559,27.798859999999998,0.0,424.0,11.0,51.4594489,-14.0,0.0,-0.051487212933832724,-219.0,0.0,-0.06242332234978676,-9.684890747070312,0.0,0.0,-0.44527536630630493,0.654045045375824,27.818265,0.0,-0.004078645724803209,10.85,0.0,0.0,7.769162931106483e-05,0.11641346110802178,,,,,,,
20.500691,1602.0,0.0,15.0,0.0,0.0,11.0,1.636095404624939,0.47755759954452515,0.0,1498.0,0.0,-2.7912592,0.0,-79.0,2.7375596176479686e-05,-2.4751931842709997e-05,0.0,0.25119203329086304,0.8713207244873047,3.0,0.0,-0.007443561684340239,407.4813690185547,1568.0,2.7214919026347584,27.879201,0.0,423.0,11.0,51.4594489,-14.0,0.0,-0.05235987755982989,-219.0,0.0,-0.06242332234978676,-9.639781951904297,0.0,0.0,-0.44527536630630493,0.6695867776870728,27.918321,0.0,-0.0002226866636192426,10.85,0.0,0.0,-0.00020239907251155869,0.11641346110802178,,,,,,,
20.600635999999998,1602.0,0.0,15.0,0.0,0.0,11.0,1.6150773763656616,0.45939573645591736,0.0,1498.0,0.0,-2.7912592,0.0,-80.0,-4.988530738360491e-05,6.2769324435582735e-06,0.0,0.25209715962409973,0.9587259292602539,3.0,0.0,-0.010829250328242779,408.93664932250977,1568.0,2.7214919026347584,27.999069,0.0,423.0,11.0,51.459448699999996,-14.0,0.0,-0.052534410485029326,-219.0,0.0,-0.06242332234978676,-9.635581970214844,0.0,0.0,-0.4675391614437103,0.6934258341789246,28.018265999999997,0.0,-0.006768529303371906,10.84,0.0,0.0,0.00036049123279571267,0.11641346110802178,,,,,,,
20.700772,1602.0,0.0,15.0,0.0,0.0,11.0,1.614598274230957,0.381102979183197,0.0,1498.0,0.0,-2.7912592,0.0,-81.0,2.942391768776859e-06,-5.4682552033497095e-06,0.0,0.2521481215953827,1.0188169479370117,3.0,0.0,-0.009399880655109882,408.93664932250977,1568.0,2.721317369709559,28.078621,0.0,425.0,11.0,51.459448699999996,-14.0,0.0,-0.05183627878423159,-223.0,0.0,-0.06242332234978676,-9.710776329040527,0.0,0.0,-0.4675391614437103,0.7070993781089783,28.118402,0.0,-0.0027020310517400503,10.84,0.0,0.0,-0.00020956831386939663,0.11623892818282235,,,,,,,
20.800681,1602.0,0.0,15.0,0.0,0.0,11.0,1.6148380041122437,0.3459075689315796,0.0,1498.0,0.0,-2.7912592,0.0,-82.0,-4.2374186134303565e-05,1.0213147196353116e-05,0.0,0.25201180577278137,0.8658578991889954,3.0,0.0,-0.012292042374610901,408.93664932250977,1568.0,2.721317369709559,28.198876,0.0,426.0,11.0,51.459448599999995,-14.0,0.0,-0.05183627878423159,-224.0,0.0,-0.06242332234978676,-9.686103820800781,0.0,0.0,-0.47867104411125183,0.7288255095481873,28.218311,0.0,-0.00951505545526743,10.81,0.0,0.0,0.00046651544036762445,0.11623892818282235,,,,,,,
20.900645,1602.0,0.0,15.0,0.0,0.0,11.0,1.6097561120986938,0.4682038724422455,0.0,1498.0,0.0,-2.7912592,0.0,-80.0,3.3664601757853245e-05,-1.3738744210350322e-05,0.0,0.2522367835044861,0.7893783450126648,3.0,0.0,-0.009242699481546879,408.93664932250977,1568.0,2.721317369709559,28.278629,0.0,427.0,11.0,51.459448599999995,-14.0,0.0,-0.051487212933832724,-224.0,0.0,-0.06242332234978676,-9.656477928161621,0.0,0.0,-0.47867104411125183,0.7413539290428162,28.318275,0.0,-0.00016179538215510547,10.81,0.0,0.0,-0.00037466557610289476,0.11623892818282235,,,,,,,
21.000737,1602.0,0.0,15.0,0.0,0.0,11.0,1.5988202095031738,0.4304391145706177,0.0,1498.0,0.0,-2.7912592,0.0,-81.0,-4.867591300747475e-05,1.2032519488448379e-05,0.0,0.25151002407073975,0.6992416977882385,3.0,0.0,-0.013168232515454292,411.72597885131836,1568.0,2.7214919026347584,28.399179999999998,0.0,426.0,11.0,51.4594484,-14.0,0.0,-0.05183627878423159,-224.0,0.0,-0.06242332234978676,-9.70317268371582,0.0,0.0,-0.5009347796440125,0.7618293762207031,28.418367,0.0,-0.009103288874030113,10.790000000000001,0.0,0.0,0.00048115798247875337,0.11623892818282235,,,,,,,
21.100684,1602.0,0.0,15.0,0.0,0.0,11.0,1.609368085861206,0.30398374795913696,0.0,1498.0,0.0,-2.7912592,0.0,-80.0,3.655538883740512e-05,-2.196034076808576e-05,0.0,0.2523747384548187,0.9505316615104675,3.0,0.0,-0.011783163994550705,411.72597885131836,1568.0,2.721317369709559,28.478621,0.0,426.0,11.0,51.4594484,-14.0,0.0,-0.05044001538263613,-225.0,0.0,-0.06242332234978676,-9.707442283630371,0.0,0.0,-0.5009347796440125,0.773334801197052,28.518314,0.0,-0.004583984147757292,10.790000000000001,0.0,0.0,-0.0003881528680614717,0.11623892818282235,,,,,,,
21.200597,1602.0,0.0,15.0,0.0,0.0,11.0,1.6452025175094604,0.7035319805145264,0.0,1498.0,0.0,-2.7912591,0.0,-80.0,-2.6514953343124154e-05,-1.3825397724578914e-05,0.0,0.2513120174407959,0.6883160471916199,3.0,0.0,-0.01243512611836195,411.72597885131836,1568.0,2.7214919026347584,28.599185,0.0,424.0,11.0,51.4594482,-14.0,0.0,-0.052708943410228755,-220.0,0.0,-0.05548739805817604,-9.671719551086426,0.0,0.0,-0.5231985449790955,0.7924689650535583,28.618226999999997,0.0,-0.006760867312550545,10.78,0.0,0.0,0.0003056588525530153,0.11623892818282235,,,,,,,
21.300741,1602.0,0.0,15.0,0.0,0.0,11.0,1.5960559844970703,0.25338125228881836,0.0,1498.0,0.0,-2.7912591,0.0,-80.0,7.278573353224241e-05,-5.827643481250542e-05,0.0,0.25320133566856384,0.6582704782485962,3.0,0.0,-0.016640586778521538,408.93664932250977,1568.0,2.7214919026347584,28.678665,0.0,424.0,11.0,51.4594482,-14.0,0.0,-0.05044001538263613,-220.0,0.0,-0.05548739805817604,-9.750435829162598,0.0,0.0,-0.5231985449790955,0.8027551174163818,28.718370999999998,0.0,-0.011571792885661125,10.78,0.0,0.0,4.464438660202732e-07,0.11623892818282235,,,,,,,
21.40079,1602.0,0.0,15.0,0.0,0.0,11.0,1.6082440614700317,0.4684807360172272,0.0,1498.0,0.0,-2.7912589999999997,0.0,-79.0,-8.71044668538482e-05,6.629511548940851e-05,0.0,0.24366730451583862,0.573596715927124,3.0,0.0,-0.00794921349734068,411.72597885131836,1568.0,2.721840968485157,28.79902,0.0,423.0,11.0,51.459447999999995,-14.0,0.0,-0.05113814708343386,-219.0,0.0,-0.04855147376656532,-9.67341423034668,0.0,0.0,-0.5454623699188232,0.8201633095741272,28.81842,0.0,-0.0011700006434693933,10.77,0.0,0.0,2.4761117749149395e-05,0.11623892818282235,,,,,,,
21.50086,1602.0,0.0,15.0,0.0,0.0,11.0,1.5753133296966553,0.4747234582901001,0.0,1498.0,0.0,-2.7912589999999997,0.0,-79.0,5.632553196226939e-05,-5.276641888552697e-05,0.0,0.24910400807857513,0.7101673483848572,3.0,0.0,-0.01378506887704134,411.72597885131836,1568.0,2.721840968485157,28.879196,0.0,423.0,11.0,51.459447999999995,-14.0,0.0,-0.05131268000863329,-219.0,0.0,-0.04855147376656532,-9.69189167022705,0.0,0.0,-0.5454623699188232,0.8287048935890198,28.91849,0.0,-0.006796348839998245,10.77,0.0,0.0,0.00012086136655151919,0.11641346110802178,,,,,,,
21.600573999999998,1602.0,0.0,15.0,0.0,0.0,11.0,1.6010866165161133,0.27271753549575806,0.0,1498.0,0.0,-2.7912589999999997,0.0,-79.0,-1.0505930947527114e-05,-5.312643515149079e-07,0.0,0.24508728086948395,0.6773903965950012,3.0,0.0,-0.0115363709628582,431.77271270751953,1568.0,2.7220155014103566,28.998849,0.0,425.0,11.0,51.4594477,-14.0,0.0,-0.05009094953223726,-219.0,0.0,-0.04855147376656532,-9.708785057067871,0.0,0.0,-0.5788580179214478,0.8447315096855164,29.018203999999997,0.0,-0.004310568794608116,10.74,0.0,0.0,-3.521724954297679e-05,0.11623892818282235,,,,,,,
21.700681,1602.0,0.0,15.0,0.0,0.0,11.0,1.59394109249115,0.6114383339881897,0.0,1498.0,0.0,-2.7912589999999997,0.0,-80.0,-5.2400315508867696e-05,1.2323917531108405e-05,0.0,0.2427985519170761,0.7484071254730225,3.0,0.0,-0.008830235339701176,411.72597885131836,1568.0,2.7220155014103566,29.078636999999997,0.0,425.0,11.0,51.4594477,-14.0,0.0,-0.05113814708343386,-223.0,0.0,-0.04855147376656532,-9.651680946350098,0.0,0.0,-0.5788580179214478,0.8528486490249634,29.118311,0.0,0.0007218914688564837,10.74,0.0,0.0,4.690050343549213e-05,0.11623892818282235,,,,,,,
21.80078,1602.0,0.0,15.0,0.0,0.0,11.0,1.6206189393997192,0.29026374220848083,0.0,1498.0,0.0,-2.7912589,0.0,-80.0,-2.1609895694451314e-06,-1.752412499776539e-05,0.0,0.24354928731918335,0.5353569388389587,3.0,0.0,-0.012143921107053757,411.72597885131836,1568.0,2.721840968485157,29.198895,0.0,426.0,11.0,51.459447499999996,-14.0,0.0,-0.05009094953223726,-224.0,0.0,-0.041615549474954605,-9.742319107055664,0.0,0.0,-0.6011217832565308,0.8679143190383911,29.21841,0.0,-0.006653659511357546,10.73,0.0,0.0,0.00016469899091374032,0.11641346110802178,,,,,,,
21.900654,1602.0,0.0,15.0,0.0,0.0,11.0,1.6126378774642944,0.6226381063461304,0.0,1498.0,0.0,-2.7912589,0.0,-80.0,2.3580213702612963e-05,-2.2459941514970157e-05,0.0,0.2404422014951706,0.6582704782485962,3.0,0.0,-0.008703397586941719,411.72597885131836,1568.0,2.721840968485157,29.278668,0.0,427.0,11.0,51.459447499999996,-14.0,0.0,-0.050789081233034994,-224.0,0.0,-0.041615549474954605,-9.642133712768555,0.0,0.0,-0.6011217832565308,0.8752089738845825,29.318284,0.0,0.001407597679644823,10.73,0.0,0.0,-0.00015400146747768053,0.11641346110802178,,,,,,,
22.000614,1602.0,0.0,15.0,0.0,0.0,11.0,1.621047854423523,0.34290099143981934,0.0,1498.0,0.0,-2.7912589,0.0,-80.0,-4.924300100991867e-05,7.555967307795882e-06,0.0,0.23771418631076813,0.7456757426261902,3.0,0.0,-0.01154992077499628,419.2051887512207,1568.0,2.721840968485157,29.398992,0.0,427.0,11.0,51.4594473,-14.0,0.0,-0.05044001538263613,-225.0,0.0,-0.041615549474954605,-9.676498413085938,0.0,0.0,-0.6233855485916138,0.8895910382270813,29.418243999999998,0.0,-0.00669792341068387,10.700000000000001,0.0,0.0,0.00022636571805664075,0.11623892818282235,,,,,,,
22.100639,1602.0,0.0,15.0,0.0,0.0,11.0,1.6046198606491089,0.5259910821914673,0.0,1498.0,0.0,-2.7912589,0.0,-80.0,5.83639853799729e-06,-2.3703448296145895e-05,0.0,0.23763948678970337,0.7620642185211182,3.0,0.0,-0.01018565520644188,411.72597885131836,1568.0,2.721840968485157,29.478647,0.0,428.0,11.0,51.4594473,-14.0,0.0,-0.05061454830783556,-224.0,0.0,-0.041615549474954605,-9.734321594238281,0.0,0.0,-0.6233855485916138,0.8966376185417175,29.518269,0.0,-0.0004276891122572124,10.700000000000001,0.0,0.0,-0.00011613921328345273,0.11623892818282235,,,,,,,
22.200779,1602.0,0.0,15.0,0.0,0.0,11.0,1.6060370206832886,0.3360190987586975,0.0,1498.0,0.0,-2.7912588,0.0,-80.0,4.749471231366113e-06,-2.5147366726858572e-05,0.0,0.23514324426651,0.7210929989814758,3.0,0.0,-0.01132696308195591,419.2051887512207,1568.0,2.721840968485157,29.599401999999998,0.0,425.0,11.0,51.459447,-14.0,0.0,-0.05061454830783556,-220.0,0.0,-0.03467962145805359,-9.686918258666992,0.0,0.0,-0.6567811965942383,0.9103778600692749,29.618409,0.0,-0.003028268925845623,10.68,0.0,0.0,-5.621886491598415e-05,0.11623892818282235,,,,,,,
22.300638,1602.0,0.0,15.0,0.0,0.0,11.0,1.6328657865524292,0.5398431420326233,0.0,1498.0,0.0,-2.7912588,0.0,-79.0,-1.5938449805171726e-05,-1.537610409550143e-05,0.0,0.23241865634918213,0.5790595412254333,3.0,0.0,-0.009686300531029701,415.2479019165039,1568.0,2.7220155014103566,29.678627,0.0,423.0,11.0,51.459447,-14.0,0.0,-0.051487212933832724,-219.0,0.0,-0.03467962145805359,-9.676223754882812,0.0,0.0,-0.6567811965942383,0.9171223044395447,29.718268,0.0,-0.0009647482074797153,10.68,0.0,0.0,8.290220216186262e-05,0.11623892818282235,,,,,,,
22.400622,1602.0,0.0,15.0,0.0,0.0,11.0,1.6018366813659668,0.3064175248146057,0.0,1498.0,0.0,-2.7912586999999998,0.0,-80.0,-1.8889783406729273e-05,-1.9504188681714822e-05,0.0,0.23083782196044922,0.8385437726974487,3.0,0.0,-0.011275685392320156,415.2479019165039,1568.0,2.721840968485157,29.798810999999997,0.0,423.0,11.0,51.459446899999996,-14.0,0.0,-0.050265482457436686,-219.0,0.0,-0.02774369902908802,-9.697355270385742,0.0,0.0,-0.6679130792617798,0.9303046464920044,29.818251999999998,0.0,-0.003503492334857583,10.67,0.0,0.0,5.521424656166074e-05,0.11623892818282235,,,,,,,
22.500643,1602.0,0.0,15.0,0.0,0.0,11.0,1.6313190460205078,0.5003622770309448,0.0,1498.0,0.0,-2.7912586999999998,0.0,-79.0,4.352382843421832e-05,-2.674794539738477e-05,0.0,0.22884608805179596,0.7593327760696411,3.0,0.0,-0.008737604133784771,411.72597885131836,1568.0,2.7220155014103566,29.879212,0.0,422.0,11.0,51.459446899999996,-14.0,0.0,-0.05131268000863329,-219.0,0.0,-0.02774369902908802,-9.685812950134277,0.0,0.0,-0.6679130792617798,0.9363793134689331,29.918273,0.0,0.001903492957353592,10.67,0.0,0.0,-0.0002665878216591797,0.11623892818282235,,,,,,,
22.60058,1602.0,0.0,15.0,0.0,0.0,11.0,1.6482014656066895,0.3497859835624695,0.0,1498.0,0.0,-2.7912586,0.0,-80.0,-3.559584055090714e-05,-1.0243574876486541e-05,0.0,0.22634123265743256,0.7593327760696411,3.0,0.0,-0.011844824999570847,411.72597885131836,1568.0,2.7221900343355556,29.999001,0.0,424.0,11.0,51.4594467,-14.0,0.0,-0.051487212933832724,-219.0,0.0,-0.020807774737477303,-9.639875411987305,0.0,0.0,-0.6901768445968628,0.9486813545227051,30.01821,0.0,-0.005342135671526194,10.66,0.0,0.0,0.00030929527678658563,0.11623892818282235,,,,,,,
22.700577,1602.0,0.0,15.0,0.0,0.0,11.0,1.5878952741622925,0.41354045271873474,0.0,1498.0,0.0,-2.7912586,0.0,-81.0,1.866172057366352e-05,-2.5410980501081184e-05,0.0,0.22467802464962006,0.8003039956092834,3.0,0.0,-0.009821516461670399,408.93664932250977,1568.0,2.7221900343355556,30.078583,0.0,427.0,11.0,51.4594467,-14.0,0.0,-0.05166174585903215,-223.0,0.0,-0.020807774737477303,-9.728775024414062,0.0,0.0,-0.6901768445968628,0.9540449380874634,30.118206999999998,0.0,0.001406828872859478,10.66,0.0,0.0,-0.00028024487713353293,0.11623892818282235,,,,,,,
22.800593,1602.0,0.0,15.0,0.0,0.0,11.0,1.6884186267852783,0.49678802490234375,0.0,1498.0,0.0,-2.7912585,0.0,-81.0,-6.16713383825961e-06,-1.5563973254339316e-05,0.0,0.22080281376838684,0.6719275712966919,3.0,0.0,-0.011777473613619804,411.72597885131836,1568.0,2.7221900343355556,30.19877,0.0,426.0,11.0,51.4594466,-14.0,0.0,-0.05183627878423159,-224.0,0.0,-0.01387184951454401,-9.588269233703613,0.0,0.0,-0.7013087272644043,0.9650511741638184,30.218223,0.0,-0.0046822563745081425,10.66,0.0,0.0,0.00028710228937545244,0.11623892818282235,,,,,,,
