time_index,velocity_z,quaternion_3,time_actual,attitude_pitch,wind_y,velocity_x,quaternion_0,global_position_longitude,mode_0,mode_2,magnetometer_1,mode_1,wind_x,altitude_gps,attitude_roll,position_x,magnetometer_2,velocity_y,global_position_latitude,attitude_yaw,time_flight,magnetometer_0,position_z,quaternion_1,gps_sat_count_0,position_y,quaternion_2,battery_0,acceleration_y,servos_3,current_2,current_3,current_0,current_1,rpm_0,servos_0,airspeed_0,servos_7,acceleration_z,acceleration_x,servos_4,servos_1,tx_controls_7,axis_rate_yaw,altitude_baro,tx_controls_0,tx_controls_6,airspeed_1,axis_rate_pitch,tx_controls_1,servos_5,tx_controls_5,rpm_1,tx_controls_3,servos_6,servos_2,battery_1,tx_controls_2,tx_controls_4,axis_rate_roll
0.0,0.0,0.0,9.079283,-0.04834562028024293,0.0,0.0,1.0,145.12655669999998,0.0,0.0,74.0,0.0,0.0,163.3,0.005759586531581287,0.0,-432.0,0.0,-37.6235474,0.0,9.098217,268.0,0.0,0.0,0.0,0.0,0.0,,,,,,,,,,,,,,,,,,,,,,,,,,,,,,,,,
0.18012799999999984,0.0,0.0,9.238688,-0.04834562028024293,0.0,0.0,1.0,145.12655669999998,0.0,0.0,74.0,0.0,0.0,163.3,0.005759586531581287,0.0,-442.0,0.0,-37.6235474,0.0,9.278345,269.0,0.0,0.0,0.0,0.0,0.0,,,,,,,,,,,,,,,,,,,,,,,,,,,,,,,,,
0.5001300000000004,0.0,0.0,9.559132,-0.04834562028024293,0.0,0.0,1.0,145.12639059999998,0.0,0.0,75.0,0.0,0.0,140.21,0.005759586531581287,0.0,-436.0,0.0,-37.623453,0.0,9.598347,266.0,0.0,0.0,5.0,0.0,0.0,,,,,,,,,,,,,,,,,,,,,,,,,,,,,,,,,
0.6801669999999991,0.0,0.0,9.759136999999999,-0.04834562028024293,0.0,0.0,1.0,145.1264289,0.0,0.0,75.0,0.0,0.0,154.11,0.005759586531581287,0.0,-430.0,0.0,-37.6234834,0.0,9.778383999999999,267.0,0.0,0.0,5.0,0.0,0.0,,,,,,,,,,,,,,,,,,,,,,,,,,,,,,,,,
0.9220039999999994,0.0,0.0,9.99941,-0.04834562028024293,0.0,0.0,1.0,145.12644369999998,0.0,0.0,78.0,0.0,0.0,160.64000000000001,0.005759586531581287,0.0,-427.0,0.0,-37.6234916,0.0,10.020221,264.0,0.0,0.0,5.0,0.0,0.0,,,,,,,,,,,,,,,,,,,,,,,,,,,,,,,,,
1.1820489999999992,0.0,0.0,10.239616999999999,-0.04834562028024293,0.0,0.0,1.0,145.1264957,0.0,0.0,77.0,0.0,0.0,171.97,0.005759586531581287,0.0,-426.0,0.0,-37.6235297,0.0,10.280266,265.0,0.0,0.0,15.0,0.0,0.0,,,,,,,,,,,,,,,,,,,,,,,,,,,,,,,,,
1.5013919999999992,0.0,0.0,10.559839,-0.04834562028024293,0.0,0.0,1.0,145.1264933,0.0,0.0,76.0,0.0,0.0,169.98,0.005759586531581287,0.0,-433.0,0.0,-37.6235314,0.0,10.599609,265.0,0.0,0.0,14.0,0.0,0.0,,,,,,,,,,,,,,,,,,,,,,,,,,,,,,,,,
1.7015849999999997,0.0,0.0,10.759659,-0.04834562028024293,0.0,0.0,1.0,145.1264894,0.0,0.0,76.0,0.0,0.0,167.79,0.005759586531581287,0.0,-431.0,0.0,-37.6235303,0.0,10.799802,266.0,0.0,0.0,16.0,0.0,0.0,,,,,,,,,,,,,,,,,,,,,,,,,,,,,,,,,
1.9012060000000002,0.0,0.0,10.959335,-0.04834562028024293,0.0,0.0,1.0,145.12649,0.0,0.0,76.0,0.0,0.0,167.84,0.005759586531581287,0.0,-430.0,0.0,-37.6235302,0.0,10.999423,265.0,0.0,0.0,16.0,0.0,0.0,,,,,,,,,,,,,,,,,,,,,,,,,,,,,,,,,
2.101172,0.0,0.0,11.159595,-0.04834562028024293,0.0,0.0,1.0,145.1264884,0.0,0.0,76.0,0.0,0.0,166.35,0.005759586531581287,0.0,-432.0,0.0,-37.6235326,0.0,11.199389,266.0,0.0,0.0,16.0,0.0,0.0,,,,,,,,,,,,,,,,,,,,,,,,,,,,,,,,,
2.301406,0.0,0.0,11.359337,-0.04834562028024293,0.0,0.0,1.0,145.12648769999998,0.0,0.0,76.0,0.0,0.0,165.33,0.005759586531581287,0.0,-431.0,0.0,-37.6235365,0.0,11.399623,264.0,0.0,0.0,15.0,0.0,0.0,,,,,,,,,,,,,,,,,,,,,,,,,,,,,,,,,
2.5410299999999992,0.0,0.0,11.600408,-0.04834562028024293,0.0,0.0,1.0,145.12648579999998,0.0,0.0,77.0,0.0,0.0,164.11,0.005759586531581287,0.0,-427.0,0.0,-37.6235347,0.0,11.639247,264.0,0.0,0.0,15.0,0.0,0.0,,,,,,,,,,,,,,,,,,,,,,,,,,,,,,,,,
2.6820059999999994,0.0,0.0,11.760079,-0.04834562028024293,0.0,0.0,1.0,145.12648579999998,0.0,0.0,78.0,0.0,0.0,163.83,0.005759586531581287,0.0,-427.0,0.0,-37.623534299999996,0.0,11.780223,266.0,0.0,0.0,14.0,0.0,0.0,,,,,,,,,,,,,,,,,,,,,,,,,,,,,,,,,
2.9014869999999995,0.0,0.0,11.959341,-0.04834562028024293,0.0,0.0,1.0,145.126484,0.0,0.0,76.0,0.0,0.0,162.99,0.005759586531581287,0.0,-433.0,0.0,-37.6235348,0.0,11.999704,265.0,0.0,0.0,15.0,0.0,0.0,,,,,,,,,,,,,,,,,,,,,,,,,,,,,,,,,
3.1821710000000003,0.0,0.0,12.239709999999999,-0.04834562028024293,0.0,0.0,1.0,145.1264837,0.0,0.0,78.0,0.0,0.0,162.74,0.005759586531581287,0.0,-426.0,0.0,-37.6235364,0.0,12.280388,265.0,0.0,0.0,16.0,0.0,0.0,,,,,,,,,,,,,,,,,,,,,,,,,,,,,,,,,
3.4819739999999992,0.0,0.0,12.560321,-0.04834562028024293,0.0,0.0,1.0,145.12648339999998,0.0,0.0,75.0,0.0,0.0,163.13,0.005759586531581287,0.0,-437.0,0.0,-37.623537999999996,0.0,12.580191,266.0,0.0,0.0,16.0,0.0,0.0,,,,,,,,,,,,,,,,,,,,,,,,,,,,,,,,,
3.6820759999999986,0.0,0.0,12.759758,-0.04834562028024293,0.0,0.0,1.0,145.1264838,0.0,0.0,76.0,0.0,0.0,163.59,0.005759586531581287,0.0,-432.0,0.0,-37.6235393,0.0,12.780292999999999,267.0,0.0,0.0,16.0,0.0,0.0,,,,,,,,,,,,,,,,,,,,,,,,,,,,,,,,,
3.8819470000000003,0.0,0.0,12.95938,-0.04834562028024293,0.0,0.0,1.0,145.1264852,0.0,0.0,76.0,0.0,0.0,163.5,0.005759586531581287,0.0,-435.0,0.0,-37.623541599999996,0.0,12.980164,266.0,0.0,0.0,17.0,0.0,0.0,,,,,,,,,,,,,,,,,,,,,,,,,,,,,,,,,
4.082079,0.0,0.0,13.159685,-0.04834562028024293,0.0,0.0,1.0,145.1264859,0.0,0.0,76.0,0.0,0.0,163.46,0.005759586531581287,0.0,-433.0,0.0,-37.6235436,0.0,13.180296,266.0,0.0,0.0,17.0,0.0,0.0,,,,,,,,,,,,,,,,,,,,,,,,,,,,,,,,,
4.283389999999999,-0.009610382840037346,0.000797729822807014,13.360370999999999,0.10367255756846318,0.0,-0.001489427057094872,0.9970521926879883,145.1264869,0.0,0.0,76.0,0.0,0.0,163.44,-0.014660765716752368,0.0,-432.0,0.0028655643109232187,-37.623545299999996,0.0,13.381606999999999,266.0,-0.00021199858747422695,-0.010210542939603329,17.0,0.0,0.07604016363620758,,,,,,,,,,,,,,,,,,,,,,,,,,,,,,,,,
4.483022,-0.02509380131959915,-0.0662643238902092,13.56135,0.10384709049366261,0.0,-0.006742754951119423,0.9948444366455078,145.1264878,0.0,0.0,76.0,0.0,0.0,163.52,-0.014486232791552936,0.0,-434.0,0.008976130746304989,-37.623546399999995,6.148445888925624,13.581239,265.0,-0.00671237800270319,-0.005026103463023901,17.0,0.0,0.07660592347383499,,,,,,,,,,,,,,,,,,,,,,,,,,,,,,,,,
4.683138999999999,-0.04182158038020134,-0.06672682613134384,13.761356,0.10384709049366261,0.0,-0.009068116545677185,0.9948107004165649,145.1264886,0.0,0.0,76.0,0.0,0.0,163.6,-0.014660765716752368,0.0,-433.0,0.01737751066684723,-37.6235474,6.147573224299627,13.781355999999999,267.0,-0.04721422120928764,-0.005020043347030878,17.0,0.0,0.07664169371128082,,,,,,,,,,,,,,,,,,,,,,,,,,,,,,,,,
4.882968,-0.0737387165427208,-0.06745453923940659,13.960818999999999,0.10402162341886204,0.0,-0.013075267896056175,0.9947525262832642,145.1264893,0.0,0.0,75.0,0.0,0.0,163.65,-0.014835298641951801,0.0,-437.0,0.024929719045758247,-37.6235485,6.146176960898032,13.981185,266.0,-0.1178588792681694,-0.005061079747974873,17.0,0.0,0.07675759494304657,,,,,,,,,,,,,,,,,,,,,,,,,,,,,,,,,
5.1020389999999995,-0.11664047092199326,-0.06784486770629883,14.160853999999999,0.10419615634406147,0.0,-0.015944160521030426,0.9947263598442078,145.12648959999999,0.0,0.0,77.0,0.0,0.0,163.68,-0.014311699866353503,0.0,-435.0,0.031519319862127304,-37.623549,6.145304296272035,14.200256,265.0,-0.1719779670238495,-0.004790918901562691,17.0,0.0,0.07677046954631805,,,,,,,,,,,,,,,,,,,,,,,,,,,,,,,,,
5.28303,-0.16330493986606598,-0.06798490881919861,14.360821,0.10419615634406147,0.0,-0.020173093304038048,0.9947129487991333,145.1264898,0.0,0.0,75.0,0.0,0.0,163.75,-0.014311699866353503,0.0,-435.0,0.03515791520476341,-37.6235496,6.145129763346835,14.381247,267.0,-0.21925030648708344,-0.004766915924847126,17.0,0.0,0.07682184875011444,,,,,,,,,,,,,,,,,,,,,,,,,,,,,,,,,
5.482635,-0.21409964561462402,-0.06808270514011383,14.561617,0.10419615634406147,0.0,-0.02172323688864708,0.9947052597999573,145.1264897,0.0,0.0,76.0,0.0,0.0,163.77,-0.014486232791552936,0.0,-437.0,0.03983478620648384,-37.6235504,6.144780697496436,14.580852,265.0,-0.25734943151474,-0.0048509081825613976,17.0,0.0,0.0768299326300621,,,,,,,,,,,,,,,,,,,,,,,,,,,,,,,,,
5.683021999999999,-0.2667151987552643,-0.0680556446313858,14.761334,0.10402162341886204,0.0,-0.02404075860977173,0.9947119355201721,145.1264897,0.0,0.0,75.0,0.0,0.0,163.77,-0.014660765716752368,0.0,-436.0,0.0379752442240715,-37.623550699999996,6.144955230421635,14.781239,267.0,-0.3038620948791504,-0.0049846358597278595,17.0,0.0,0.07675901800394058,,,,,,,,,,,,,,,,,,,,,,,,,,,,,,,,,
5.883113999999999,-0.31989967823028564,-0.06786369532346725,14.960815,0.10384709049366261,0.0,-0.022408530116081238,0.9947266578674316,145.1264894,0.0,0.0,77.0,0.0,0.0,163.78,-0.015533430342749533,0.0,-430.0,0.03673115000128746,-37.6235505,6.145304296272035,14.981330999999999,265.0,-0.3602493405342102,-0.005418313201516867,17.0,0.0,0.07670830935239792,,,,,,,,,,,,,,,,,,,,,,,,,,,,,,,,,
6.082955999999999,-0.37275049090385437,-0.06775115430355072,15.16114,0.10367255756846318,0.0,-0.023937547579407692,0.9947407841682434,145.1264893,0.0,0.0,76.0,0.0,0.0,163.84,-0.016057029118347832,0.0,-431.0,0.03220214322209358,-37.6235505,6.145478829197234,15.181173,265.0,-0.41669565439224243,-0.005660936236381531,17.0,0.0,0.07660696655511856,,,,,,,,,,,,,,,,,,,,,,,,,,,,,,,,,
6.283055999999998,-0.42251288890838623,-0.06765207648277283,15.360847999999999,0.10349802464326374,0.0,-0.021408697590231895,0.9947510957717896,145.12648919999998,0.0,0.0,76.0,0.0,0.0,163.89000000000001,-0.016755160819145562,0.0,-434.0,0.024929486215114594,-37.6235502,6.145653362122434,15.381272999999998,267.0,-0.478985995054245,-0.006025231909006834,17.0,0.0,0.0765329897403717,,,,,,,,,,,,,,,,,,,,,,,,,,,,,,,,,
6.483046,-0.4665536880493164,-0.06763693690299988,15.561366999999999,0.1033234917180643,0.0,-0.018428826704621315,0.994757890701294,145.12648959999999,0.0,0.0,76.0,0.0,0.0,163.89000000000001,-0.016755160819145562,0.0,-432.0,0.017673702910542488,-37.6235504,6.145653362122434,15.581263,266.0,-0.5385438799858093,-0.006086891051381826,17.0,0.0,0.07645286619663239,,,,,,,,,,,,,,,,,,,,,,,,,,,,,,,,,
6.682953999999999,-0.5074990391731262,-0.06760450452566147,15.761291,0.10314895879286488,0.0,-0.016303610056638718,0.9947645664215088,145.12648959999999,0.0,0.0,75.0,0.0,0.0,163.93,-0.016929693744344994,0.0,-434.0,0.012404294684529305,-37.6235504,6.145653362122434,15.781170999999999,268.0,-0.598436176776886,-0.006176218390464783,17.0,0.0,0.07638739049434662,,,,,,,,,,,,,,,,,,,,,,,,,,,,,,,,,
6.882966999999999,-0.5420018434524536,-0.0674416646361351,15.961222,0.10314895879286488,0.0,-0.014397059567272663,0.9947764873504639,145.1264897,0.0,0.0,76.0,0.0,0.0,163.96,-0.01710422666954443,0.0,-434.0,0.008026103489100933,-37.6235506,6.146002427972832,15.981183999999999,265.0,-0.655237078666687,-0.006221657618880272,17.0,0.0,0.0763714537024498,,,,,,,,,,,,,,,,,,,,,,,,,,,,,,,,,
7.083022999999999,-0.5717652440071106,-0.06726394593715668,16.161094,0.10314895879286488,0.0,-0.013610363006591797,0.9947924017906189,145.1264899,0.0,0.0,75.0,0.0,0.0,163.94,-0.016755160819145562,0.0,-432.0,0.005267797969281673,-37.623550699999996,6.146351493823231,16.18124,267.0,-0.702819287776947,-0.00608983775600791,17.0,0.0,0.07633277773857117,,,,,,,,,,,,,,,,,,,,,,,,,,,,,,,,,
7.282703,-0.600470244884491,-0.06707247346639633,16.360917,0.10314895879286488,0.0,-0.013868540525436401,0.9948040843009949,145.1264904,0.0,0.0,76.0,0.0,0.0,163.93,-0.016929693744344994,0.0,-432.0,0.0019593252800405025,-37.623551,6.14670055967363,16.38092,267.0,-0.7493197917938232,-0.006194851361215115,17.0,0.0,0.07633937150239944,,,,,,,,,,,,,,,,,,,,,,,,,,,,,,,,,
7.482673,-0.6278300881385803,-0.0668918564915657,16.561251,0.10314895879286488,0.0,-0.014236589893698692,0.9948126673698425,145.12649059999998,0.0,0.0,76.0,0.0,0.0,163.88,-0.01710422666954443,0.0,-432.0,0.000782680930569768,-37.623551299999995,6.147049625524028,16.58089,266.0,-0.7968884706497192,-0.006321524269878864,17.0,0.0,0.07637649029493332,,,,,,,,,,,,,,,,,,,,,,,,,,,,,,,,,
7.682875000000001,-0.652754008769989,-0.06673160940408707,16.761376,0.10314895879286488,0.0,-0.014979712665081024,0.9948218464851379,145.1264909,0.0,0.0,75.0,0.0,0.0,163.86,-0.017278759594743863,0.0,-431.0,0.00023851559672039002,-37.6235515,6.147398691374428,16.781092,267.0,-0.8429321050643921,-0.006420148070901632,17.0,0.0,0.07638930529356003,,,,,,,,,,,,,,,,,,,,,,,,,,,,,,,,,
7.882835999999999,-0.673426628112793,-0.06669875979423523,16.960841,0.10314895879286488,0.0,-0.015101205557584763,0.9948248863220215,145.12649109999998,0.0,0.0,76.0,0.0,0.0,163.85,-0.01710422666954443,0.0,-431.0,-0.0011643718462437391,-37.6235517,6.147398691374428,16.981053,267.0,-0.8822464942932129,-0.006286345887929201,17.0,0.0,0.07638855278491974,,,,,,,,,,,,,,,,,,,,,,,,,,,,,,,,,
8.083048,-0.6942344903945923,-0.0664861798286438,17.161071,0.10314895879286488,0.0,-0.016183841973543167,0.9948374629020691,145.126491,0.0,0.0,77.0,0.0,0.0,163.84,-0.01710422666954443,0.0,-431.0,-0.0031129824928939342,-37.6235517,6.147922290150026,17.181265,267.0,-0.9178741574287415,-0.006325721275061369,17.0,0.0,0.07640784978866577,,,,,,,,,,,,,,,,,,,,,,,,,,,,,,,,,
8.282655999999998,-0.708000123500824,-0.06629835069179535,17.360927,0.10314895879286488,0.0,-0.016324933618307114,0.9948477149009705,145.126491,0.0,0.0,75.0,0.0,0.0,163.83,-0.017453292519943295,0.0,-435.0,-0.00230090762488544,-37.6235517,6.148271356000424,17.380872999999998,266.0,-0.9466179013252258,-0.0064873951487243176,17.0,0.0,0.07642314583063126,,,,,,,,,,,,,,,,,,,,,,,,,,,,,,,,,
8.482823999999999,-0.7246928215026855,-0.06613785028457642,17.561256999999998,0.1033234917180643,0.0,-0.017769334837794304,0.9948568344116211,145.1264909,0.0,0.0,75.0,0.0,0.0,163.83,-0.017453292519943295,0.0,-430.0,-0.0018640294438228011,-37.6235516,6.148620421850824,17.581041,267.0,-0.9792451858520508,-0.006547741591930389,17.0,0.0,0.07643880695104599,,,,,,,,,,,,,,,,,,,,,,,,,,,,,,,,,
8.683006,-0.7410172820091248,-0.06598792225122452,17.761247,0.1033234917180643,0.0,-0.018419336527585983,0.9948665499687195,145.1264909,0.0,0.0,75.0,0.0,0.0,163.8,-0.017627825445142728,0.0,-434.0,-0.0017653255490586162,-37.6235516,6.148794954776023,17.781223,267.0,-1.0145748853683472,-0.006599819753319025,17.0,0.0,0.07643730193376541,,,,,,,,,,,,,,,,,,,,,,,,,,,,,,,,,
8.882931999999998,-0.7531360387802124,-0.0657687708735466,17.960874,0.10314895879286488,0.0,-0.01790996827185154,0.9948830604553223,145.1264909,0.0,0.0,76.0,0.0,0.0,163.76,-0.017627825445142728,0.0,-432.0,-0.0014518192037940025,-37.6235517,6.149318553551621,17.981149,267.0,-1.0495696067810059,-0.006646370515227318,17.0,0.0,0.07640830427408218,,,,,,,,,,,,,,,,,,,,,,,,,,,,,,,,,
9.082956999999999,-0.7644206285476685,-0.0655522421002388,18.161333,0.10297442586766545,0.0,-0.015636447817087173,0.9949041604995728,145.126491,0.0,0.0,75.0,0.0,0.0,163.72,-0.017627825445142728,0.0,-437.0,0.00031660738750360906,-37.623551899999995,6.14966761940202,18.181174,266.0,-1.0883867740631104,-0.00667345616966486,17.0,0.0,0.07631577551364899,,,,,,,,,,,,,,,,,,,,,,,,,,,,,,,,,
9.282950999999999,-0.7724242806434631,-0.06534083187580109,18.360694,0.102799892942466,0.0,-0.013613431714475155,0.9949269890785217,145.126491,0.0,0.0,76.0,0.0,0.0,163.68,-0.017453292519943295,0.0,-431.0,-0.0005410720477811992,-37.623552,6.150191218177619,18.381168,266.0,-1.121795415878296,-0.0066255019046366215,17.0,0.0,0.07620491832494736,,,,,,,,,,,,,,,,,,,,,,,,,,,,,,,,,
9.482942,-0.7736162543296814,-0.0650980994105339,18.561231,0.10245082709206714,0.0,-0.010515181347727776,0.9949519038200378,145.1264909,0.0,0.0,76.0,0.0,0.0,163.65,-0.017627825445142728,0.0,-433.0,-0.0005196628044359386,-37.6235521,6.150714816953217,18.581159,266.0,-1.1468476057052612,-0.006697384640574455,17.0,0.0,0.07608014345169067,,,,,,,,,,,,,,,,,,,,,,,,,,,,,,,,,
9.682844999999999,-0.7701486349105835,-0.06494530290365219,18.761309,0.10227629416686772,0.0,-0.008041169494390488,0.9949742555618286,145.1264909,0.0,0.0,76.0,0.0,0.0,163.62,-0.017278759594743863,0.0,-434.0,-0.003163152141496539,-37.6235521,6.151063882803616,18.781062,266.0,-1.1674519777297974,-0.006512752268463373,17.0,0.0,0.07593386620283127,,,,,,,,,,,,,,,,,,,,,,,,,,,,,,,,,
9.882958999999998,-0.7586476802825928,-0.06471440196037292,18.960774,0.10192722831646885,0.0,-0.005448547657579184,0.9949989318847656,145.1264908,0.0,0.0,75.0,0.0,0.0,163.58,-0.017453292519943295,0.0,-430.0,-0.004196554888039827,-37.6235521,6.151412948654015,18.981175999999998,266.0,-1.179438829421997,-0.006640189327299595,17.0,0.0,0.07579731196165085,,,,,,,,,,,,,,,,,,,,,,,,,,,,,,,,,
10.082686999999998,-0.7394518852233887,-0.06448296457529068,19.161065999999998,0.10175269539126941,0.0,-0.0024352732580155134,0.995019257068634,145.1264908,0.0,0.0,76.0,0.0,0.0,163.54,-0.017627825445142728,0.0,-431.0,-0.005685486830770969,-37.6235521,6.151936547429613,19.180903999999998,266.0,-1.1752103567123413,-0.006779304705560207,17.0,0.0,0.07571524381637573,,,,,,,,,,,,,,,,,,,,,,,,,,,,,,,,,
10.282932,-0.7171317338943481,-0.06422825902700424,19.36077,0.10157816246606999,0.0,-0.0005996344843879342,0.9950422644615173,145.1264908,0.0,0.0,76.0,0.0,0.0,163.49,-0.017627825445142728,0.0,-432.0,-0.0068281847052276134,-37.6235522,6.152460146205211,19.381149,266.0,-1.1649636030197144,-0.006811193190515041,17.0,0.0,0.0756264328956604,,,,,,,,,,,,,,,,,,,,,,,,,,,,,,,,,
10.482982999999999,-0.6924006938934326,-0.06404867023229599,19.561261,0.10157816246606999,0.0,0.0007335013360716403,0.9950567483901978,145.1264908,0.0,0.0,75.0,0.0,0.0,163.46,-0.017627825445142728,0.0,-432.0,-0.008295625448226929,-37.6235523,6.152809212055611,19.5812,267.0,-1.1566088199615479,-0.0067775556817650795,17.0,0.0,0.0755903348326683,,,,,,,,,,,,,,,,,,,,,,,,,,,,,,,,,
10.682677,-0.6655029058456421,-0.06389537453651428,19.761782,0.10140362954087055,0.0,0.0031615050975233316,0.9950702786445618,145.1264908,0.0,0.0,76.0,0.0,0.0,163.42000000000002,-0.017453292519943295,0.0,-432.0,-0.007942970842123032,-37.6235524,6.153158277906009,19.780894,267.0,-1.1463679075241089,-0.006749233230948448,17.0,0.0,0.07554540783166885,,,,,,,,,,,,,,,,,,,,,,,,,,,,,,,,,
10.921742,-0.6256272196769714,-0.06364236772060394,20.001345,0.10140362954087055,0.0,0.003845194121822715,0.9950863122940063,145.12649059999998,0.0,0.0,76.0,0.0,0.0,163.42000000000002,-0.01780235837034216,0.0,-428.0,-0.00748462975025177,-37.6235524,6.153507343756408,20.019959,266.0,-1.1234500408172607,-0.006891375873237848,17.0,0.0,0.07553406804800034,,,,,,,,,,,,,,,,,,,,,,,,,,,,,,,,,
11.082944,-0.6000573635101318,-0.06357691437005997,20.161224,0.10140362954087055,0.0,0.004770833067595959,0.9950952529907227,145.12649059999998,0.0,0.0,76.0,0.0,0.0,163.39000000000001,-0.017278759594743863,0.0,-430.0,-0.0070525952614843845,-37.623552499999995,6.153681876681607,20.181161,266.0,-1.1092149019241333,-0.006662702187895775,17.0,0.0,0.0754924938082695,,,,,,,,,,,,,,,,,,,,,,,,,,,,,,,,,
11.282803,-0.5689781308174133,-0.0634680837392807,20.360858,0.10140362954087055,0.0,0.004618652164936066,0.9951007962226868,145.12649059999998,0.0,0.0,76.0,0.0,0.0,163.35,-0.017453292519943295,0.0,-434.0,-0.007121328264474869,-37.6235526,6.154030942532007,20.38102,266.0,-1.0924789905548096,-0.006803359370678663,17.0,0.0,0.07549845427274704,,,,,,,,,,,,,,,,,,,,,,,,,,,,,,,,,
11.483413,-0.5323137044906616,-0.06346141546964645,20.561277999999998,0.10140362954087055,0.0,0.005487469024956226,0.9951032996177673,145.1264907,0.0,0.0,75.0,0.0,0.0,163.33,-0.01710422666954443,0.0,-434.0,-0.006410313304513693,-37.6235528,6.154030942532007,20.58163,268.0,-1.0666340589523315,-0.006644366774708033,17.0,0.0,0.07548551261425018,,,,,,,,,,,,,,,,,,,,,,,,,,,,,,,,,
11.682864,-0.4916180968284607,-0.06339574605226517,20.761381999999998,0.10140362954087055,0.0,0.006309859920293093,0.9951084852218628,145.1264907,0.0,0.0,75.0,0.0,0.0,163.29,-0.016929693744344994,0.0,-432.0,-0.005292328540235758,-37.6235528,6.154205475457205,20.781081,268.0,-1.026017189025879,-0.0065089259296655655,17.0,0.0,0.07548394799232483,,,,,,,,,,,,,,,,,,,,,,,,,,,,,,,,,
11.882664,-0.4502336084842682,-0.06322790682315826,20.960791999999998,0.10140362954087055,0.0,0.006793932057917118,0.9951164722442627,145.1264908,0.0,0.0,75.0,0.0,0.0,163.3,-0.01710422666954443,0.0,-430.0,-0.004660727921873331,-37.6235528,6.154380008382405,20.980881,266.0,-0.9863547682762146,-0.00664012786000967,17.0,0.0,0.07550805807113647,,,,,,,,,,,,,,,,,,,,,,,,,,,,,,,,,
12.082965,-0.4126238226890564,-0.06312915682792664,21.160857999999998,0.10140362954087055,0.0,0.0068228780291974545,0.9951205253601074,145.1264908,0.0,0.0,75.0,0.0,0.0,163.3,-0.017278759594743863,0.0,-430.0,-0.004251881968230009,-37.6235529,6.154729074232804,21.181182,268.0,-0.9469963908195496,-0.006713095121085644,17.0,0.0,0.07553118467330933,,,,,,,,,,,,,,,,,,,,,,,,,,,,,,,,,
12.282646999999999,-0.37298259139060974,-0.06306874752044678,21.360946,0.10157816246606999,0.0,0.007724578958004713,0.995124876499176,145.1264908,0.0,0.0,76.0,0.0,0.0,163.27,-0.016755160819145562,0.0,-434.0,-0.0026599846314638853,-37.6235528,6.154729074232804,21.380864,267.0,-0.9043542742729187,-0.006462005898356438,17.0,0.0,0.07554540783166885,,,,,,,,,,,,,,,,,,,,,,,,,,,,,,,,,
12.483047999999998,-0.33475545048713684,-0.06303797662258148,21.561280999999997,0.10157816246606999,0.0,0.006733892485499382,0.9951241612434387,145.1264907,0.0,0.0,75.0,0.0,0.0,163.3,-0.016929693744344994,0.0,-433.0,-0.004013858735561371,-37.6235528,6.154903607158004,21.581265,267.0,-0.8587644696235657,-0.006518092937767506,17.0,0.0,0.07557515054941177,,,,,,,,,,,,,,,,,,,,,,,,,,,,,,,,,
12.682688,-0.2983320355415344,-0.06296806782484055,21.761156,0.10157816246606999,0.0,0.0065054697915911674,0.9951258897781372,145.12649059999998,0.0,0.0,76.0,0.0,0.0,163.27,-0.016929693744344994,0.0,-431.0,-0.0037159034982323647,-37.6235527,6.155078140083203,21.780905,268.0,-0.8118329644203186,-0.006584810558706522,17.0,0.0,0.0756048634648323,,,,,,,,,,,,,,,,,,,,,,,,,,,,,,,,,
12.882658999999999,-0.26016947627067566,-0.06288982927799225,21.960698,0.10175269539126941,0.0,0.007537611294537783,0.9951280951499939,145.1264904,0.0,0.0,76.0,0.0,0.0,163.25,-0.01710422666954443,0.0,-431.0,-0.004072810057550669,-37.623552499999995,6.155078140083203,21.980876,267.0,-0.7618216276168823,-0.0066725281067192554,17.0,0.0,0.07563330233097076,,,,,,,,,,,,,,,,,,,,,,,,,,,,,,,,,
13.102095999999998,-0.2289176881313324,-0.06286215037107468,22.161111,0.10175269539126941,0.0,0.00590788759291172,0.9951267838478088,145.1264903,0.0,0.0,75.0,0.0,0.0,163.23,-0.01710422666954443,0.0,-434.0,-0.004467534366995096,-37.6235523,6.155252673008403,22.200312999999998,267.0,-0.7232073545455933,-0.006649518385529518,17.0,0.0,0.07567618787288666,,,,,,,,,,,,,,,,,,,,,,,,,,,,,,,,,
13.301969999999999,-0.20220299065113068,-0.06289748847484589,22.36096,0.10175269539126941,0.0,0.005014490801841021,0.9951235055923462,145.1264903,0.0,0.0,76.0,0.0,0.0,163.20000000000002,-0.01710422666954443,0.0,-435.0,-0.004490329883992672,-37.6235523,6.155078140083203,22.400187,267.0,-0.6873467564582825,-0.00663770129904151,17.0,0.0,0.07569146156311035,,,,,,,,,,,,,,,,,,,,,,,,,,,,,,,,,
13.502041,-0.17248284816741943,-0.06295717507600784,22.561096,0.10192722831646885,0.0,0.004750309512019157,0.9951178431510925,145.1264902,0.0,0.0,76.0,0.0,0.0,163.17000000000002,-0.016929693744344994,0.0,-431.0,-0.0014803038211539388,-37.6235521,6.155078140083203,22.600258,267.0,-0.6453171372413635,-0.006573274731636047,17.0,0.0,0.07572215795516968,,,,,,,,,,,,,,,,,,,,,,,,,,,,,,,,,
13.682946,-0.14808541536331177,-0.06291892379522324,22.761339,0.10192722831646885,0.0,0.00269677652977407,0.9951124787330627,145.12649009999998,0.0,0.0,76.0,0.0,0.0,163.14000000000001,-0.017627825445142728,0.0,-435.0,0.0010204254649579525,-37.623552,6.155078140083203,22.781163,266.0,-0.6063364148139954,-0.0068548922426998615,17.0,0.0,0.07579963654279709,,,,,,,,,,,,,,,,,,,,,,,,,,,,,,,,,
13.902047999999999,-0.1281612366437912,-0.06301963329315186,22.960673999999997,0.10210176124166828,0.0,0.0025357743725180626,0.9951046109199524,145.1264899,0.0,0.0,75.0,0.0,0.0,163.1,-0.017278759594743863,0.0,-432.0,-0.0025048288516700268,-37.623552,6.154903607158004,23.000265,266.0,-0.5801982879638672,-0.006692306604236364,17.0,0.0,0.07583347707986832,,,,,,,,,,,,,,,,,,,,,,,,,,,,,,,,,
14.082962,-0.11347581446170807,-0.06296854466199875,23.161105,0.10210176124166828,0.0,9.554022108204663e-05,0.9951066970825195,145.1264898,0.0,0.0,75.0,0.0,0.0,163.07,-0.016929693744344994,0.0,-432.0,-0.0018568526720628142,-37.623551899999995,6.154903607158004,23.181179,266.0,-0.5615382790565491,-0.006524713709950447,17.0,0.0,0.07586269080638885,,,,,,,,,,,,,,,,,,,,,,,,,,,,,,,,,
14.282679,-0.10005534440279007,-0.06294576078653336,23.360682999999998,0.10227629416686772,0.0,-0.00108494667802006,0.9951079487800598,145.1264898,0.0,0.0,75.0,0.0,0.0,163.05,-0.016580627893946133,0.0,-432.0,7.727311458438635e-05,-37.6235518,6.155078140083203,23.380896,266.0,-0.5486161708831787,-0.006333515979349613,17.0,0.0,0.07588068395853043,,,,,,,,,,,,,,,,,,,,,,,,,,,,,,,,,
14.482760999999998,-0.09097815304994583,-0.0628955066204071,23.561341,0.10227629416686772,0.0,-0.0018580745672807097,0.9951038360595703,145.1264897,0.0,0.0,76.0,0.0,0.0,163.04,-0.016929693744344994,0.0,-433.0,0.0014102377463132143,-37.6235517,6.155078140083203,23.580977999999998,266.0,-0.5434637069702148,-0.0065457578748464584,17.0,0.0,0.07595854997634888,,,,,,,,,,,,,,,,,,,,,,,,,,,,,,,,,
14.682927999999999,-0.09042368829250336,-0.06291327625513077,23.761276,0.10245082709206714,0.0,-0.0038459328934550285,0.9951008558273315,145.1264895,0.0,0.0,76.0,0.0,0.0,163.02,-0.016929693744344994,0.011131884530186653,-436.0,0.0018551078392192721,-37.6235516,6.155078140083203,23.781145,267.0,-0.5583577156066895,-0.0065053110010921955,17.0,-0.008816884830594063,0.07598672807216644,,,,,,,,,,,,,,,,,,,,,,,,,,,,,,,,,
14.883137,-0.09291902184486389,-0.0629737451672554,23.960694999999998,0.10245082709206714,0.0,-0.005523543804883957,0.9950961470603943,145.1264894,0.0,0.0,76.0,0.0,0.0,162.99,-0.016755160819145562,0.022263769060373306,-434.0,0.0012979154707863927,-37.6235514,6.154903607158004,23.981354,267.0,-0.5843935012817383,-0.006457544397562742,17.0,-0.02645065449178219,0.07600252330303192,,,,,,,,,,,,,,,,,,,,,,,,,,,,,,,,,
15.062700999999999,-0.09222374856472015,-0.06305889785289764,24.120946999999997,0.10245082709206714,0.0,-0.006435593590140343,0.9950903654098511,145.1264893,0.0,0.0,75.0,0.0,0.0,163.02,-0.016580627893946133,0.04452753812074661,-432.0,0.0015724303666502237,-37.623551299999995,6.154903607158004,24.160918,267.0,-0.5967287421226501,-0.006304705049842596,17.0,-0.03526753932237625,0.07601995766162872,,,,,,,,,,,,,,,,,,,,,,,,,,,,,,,,,
15.282731999999998,-0.08677735924720764,-0.06302236765623093,24.360809,0.10262536001726658,0.0,-0.008466437458992004,0.995089590549469,145.1264893,0.0,0.0,74.0,0.0,0.0,163.01,-0.016580627893946133,0.055659420788288116,-433.0,0.0026173931546509266,-37.623551299999995,6.154903607158004,24.380948999999998,266.0,-0.6044301986694336,-0.006367622874677181,17.0,-0.044084422290325165,0.07605569064617157,,,,,,,,,,,,,,,,,,,,,,,,,,,,,,,,,
15.482487999999998,-0.0817459225654602,-0.06295246630907059,24.561387999999997,0.10262536001726658,0.0,-0.00926568266004324,0.9950952529907227,145.1264893,0.0,0.0,75.0,0.0,0.0,162.99,-0.016580627893946133,0.055659420788288116,-436.0,0.001557584386318922,-37.6235512,6.155078140083203,24.580705,267.0,-0.6057763695716858,-0.006308837793767452,17.0,-0.044084422290325165,0.07604499161243439,,,,,,,,,,,,,,,,,,,,,,,,,,,,,,,,,
15.682964,-0.0746731385588646,-0.06286697089672089,24.761627999999998,0.10262536001726658,0.0,-0.009885277599096298,0.9951000213623047,145.1264893,0.0,0.0,76.0,0.0,0.0,162.96,-0.0164060949687467,0.06679131090641022,-432.0,0.002643210580572486,-37.6235512,6.155252673008403,24.781181,266.0,-0.6034032702445984,-0.00624070456251502,17.0,-0.044084422290325165,0.07605811208486557,,,,,,,,,,,,,,,,,,,,,,,,,,,,,,,,,
15.882882999999998,-0.06726079434156418,-0.0627874806523323,24.960970999999997,0.10262536001726658,0.0,-0.010644465684890747,0.9951013922691345,145.1264894,0.0,0.0,77.0,0.0,0.0,162.93,-0.016755160819145562,0.06679131090641022,-432.0,0.0033491698559373617,-37.623551299999995,6.155427205933601,24.981099999999998,265.0,-0.596259593963623,-0.006446948740631342,17.0,-0.044084422290325165,0.07608858495950699,,,,,,,,,,,,,,,,,,,,,,,,,,,,,,,,,
16.082743,-0.058466579765081406,-0.06284425407648087,25.161315,0.10262536001726658,0.0,-0.012513945810496807,0.9950963854789734,145.1264895,0.0,0.0,76.0,0.0,0.0,162.92000000000002,-0.016580627893946133,0.055659420788288116,-432.0,0.002365807304158807,-37.623551299999995,6.155252673008403,25.18096,264.0,-0.58426433801651,-0.006346709560602903,17.0,-0.03526753932237625,0.07611548900604248,,,,,,,,,,,,,,,,,,,,,,,,,,,,,,,,,
16.282835999999996,-0.04789399728178978,-0.06288982182741165,25.360684,0.102799892942466,0.0,-0.012639782391488552,0.9950928688049316,145.12648959999999,0.0,0.0,76.0,0.0,0.0,162.9,-0.016580627893946133,0.055659420788288116,-431.0,0.003626566380262375,-37.6235514,6.155252673008403,25.381052999999998,266.0,-0.5691304206848145,-0.006326446775346994,17.0,-0.02645065449178219,0.07612508535385132,,,,,,,,,,,,,,,,,,,,,,,,,,,,,,,,,
16.462097,-0.03907324746251106,-0.0630161389708519,25.520229,0.102799892942466,0.0,-0.01371352095156908,0.9950856566429138,145.12648959999999,0.0,0.0,76.0,0.0,0.0,162.87,-0.0164060949687467,0.04452753812074661,-431.0,0.004976986441761255,-37.6235515,6.154903607158004,25.560313999999998,266.0,-0.5541138648986816,-0.006238636560738087,17.0,-0.017633769661188126,0.07612214982509613,,,,,,,,,,,,,,,,,,,,,,,,,,,,,,,,,
16.683006999999996,-0.026949649676680565,-0.06305395066738129,25.761412999999997,0.102799892942466,0.0,-0.015102429315447807,0.995078980922699,145.1264897,0.0,0.0,76.0,0.0,0.0,162.83,-0.016755160819145562,0.03339565545320511,-436.0,0.005224389489740133,-37.6235517,6.154903607158004,25.781223999999998,266.0,-0.5306604504585266,-0.006428678520023823,17.0,-0.017633769661188126,0.07616343349218369,,,,,,,,,,,,,,,,,,,,,,,,,,,,,,,,,
16.882903999999996,-0.017734430730342865,-0.06310641020536423,25.960917,0.102799892942466,0.0,-0.015591795556247234,0.9950756430625916,145.1264898,0.0,0.0,75.0,0.0,0.0,162.79,-0.016580627893946133,0.011131884530186653,-432.0,0.005480049178004265,-37.623551899999995,6.154729074232804,25.981120999999998,266.0,-0.5063604116439819,-0.006340951193124056,17.0,-0.008816884830594063,0.07617072016000748,,,,,,,,,,,,,,,,,,,,,,,,,,,,,,,,,
17.082958999999995,-0.005386114586144686,-0.06313380599021912,26.161177,0.102799892942466,0.0,-0.01661326363682747,0.9950724840164185,145.1264898,0.0,0.0,75.0,0.0,0.0,162.74,-0.016580627893946133,-0.011131884530186653,-430.0,0.005639779381453991,-37.623552,6.154729074232804,26.181175999999997,265.0,-0.47810474038124084,-0.006298692896962166,17.0,0.0,0.07619276642799377,,,,,,,,,,,,,,,,,,,,,,,,,,,,,,,,,
17.282764999999998,0.00608743354678154,-0.06317487359046936,26.360825,0.102799892942466,0.0,-0.017015336081385612,0.9950700402259827,145.1264899,0.0,0.0,75.0,0.0,0.0,162.71,-0.0164060949687467,-0.022263769060373306,-430.0,0.005867302883416414,-37.6235521,6.154554541307604,26.380982,265.0,-0.44516658782958984,-0.006205849349498749,17.0,0.0,0.07619722187519073,,,,,,,,,,,,,,,,,,,,,,,,,,,,,,,,,
17.482869,0.01563650742173195,-0.063188835978508,26.561352,0.102799892942466,0.0,-0.01877398043870926,0.9950677156448364,145.12649,0.0,0.0,74.0,0.0,0.0,162.68,-0.016580627893946133,-0.03339565545320511,-434.0,0.004891584627330303,-37.6235522,6.154554541307604,26.581086,266.0,-0.40936172008514404,-0.006300192326307297,17.0,0.008816884830594063,0.0762081891298294,,,,,,,,,,,,,,,,,,,,,,,,,,,,,,,,,
17.682904999999998,0.026870960369706154,-0.06323673576116562,26.761233999999998,0.10297442586766545,0.0,-0.019653495401144028,0.995064377784729,145.12649009999998,0.0,0.0,76.0,0.0,0.0,162.64000000000001,-0.016580627893946133,-0.04452753812074661,-433.0,0.004965692292898893,-37.6235524,6.154380008382405,26.781122,266.0,-0.3715797960758209,-0.006307469215244055,17.0,0.017633769661188126,0.0762123167514801,,,,,,,,,,,,,,,,,,,,,,,,,,,,,,,,,
17.862356,0.036385998129844666,-0.06329414993524551,26.920213,0.10297442586766545,0.0,-0.02100919559597969,0.9950605034828186,145.1264903,0.0,0.0,76.0,0.0,0.0,162.59,-0.016580627893946133,-0.06679131090641022,-435.0,0.004194662440568209,-37.623552499999995,6.154380008382405,26.960573,267.0,-0.33867892622947693,-0.006272537633776665,17.0,0.02645065449178219,0.0762176364660263,,,,,,,,,,,,,,,,,,,,,,,,,,,,,,,,,
18.083464,0.05129428952932358,-0.0632985532283783,27.161262999999998,0.10297442586766545,0.0,-0.022005895152688026,0.9950579404830933,145.1264903,0.0,0.0,76.0,0.0,0.0,162.56,-0.016755160819145562,-0.07792319357395172,-431.0,0.004664170555770397,-37.6235526,6.154380008382405,27.181680999999998,266.0,-0.28913751244544983,-0.006357126869261265,17.0,0.044084422290325165,0.07624036818742752,,,,,,,,,,,,,,,,,,,,,,,,,,,,,,,,,
18.282635,0.06232836842536926,-0.06328243017196655,27.361337,0.10297442586766545,0.0,-0.0228037778288126,0.995058000087738,145.1264905,0.0,0.0,76.0,0.0,0.0,162.52,-0.016929693744344994,-0.08905507624149323,-431.0,0.003357894020155072,-37.6235527,6.154380008382405,27.380851999999997,266.0,-0.24477100372314453,-0.006441071163862944,17.0,0.044084422290325165,0.0762457475066185,,,,,,,,,,,,,,,,,,,,,,,,,,,,,,,,,
18.482652,0.07375644892454147,-0.0633273720741272,27.561255,0.10297442586766545,0.0,-0.02411329559981823,0.9950539469718933,145.12649059999998,0.0,0.0,75.0,0.0,0.0,162.49,-0.016755160819145562,-0.10018695890903473,-432.0,0.0018476682016626,-37.6235528,6.154205475457205,27.580869,265.0,-0.19909507036209106,-0.006410472095012665,17.0,0.06171819195151329,0.07626401633024216,,,,,,,,,,,,,,,,,,,,,,,,,,,,,,,,,
18.683079,0.0834595337510109,-0.06340152770280838,27.761397,0.10297442586766545,0.0,-0.02582404762506485,0.9950489401817322,145.12649059999998,0.0,0.0,75.0,0.0,0.0,162.45000000000002,-0.016929693744344994,-0.11131884157657623,-435.0,0.0030921597499400377,-37.6235528,6.154030942532007,27.781295999999998,267.0,-0.15272949635982513,-0.0064452351070940495,17.0,0.0705350786447525,0.07626479119062424,,,,,,,,,,,,,,,,,,,,,,,,,,,,,,,,,
18.882683999999998,0.09437346458435059,-0.06341899931430817,27.961126999999998,0.10297442586766545,0.0,-0.027321573346853256,0.9950481057167053,145.1264907,0.0,0.0,74.0,0.0,0.0,162.41,-0.016755160819145562,-0.11131884157657623,-434.0,0.0030852295458316803,-37.6235529,6.154030942532007,27.980901,266.0,-0.10580162703990936,-0.006390515249222517,17.0,0.0705350786447525,0.07626654952764511,,,,,,,,,,,,,,,,,,,,,,,,,,,,,,,,,
19.102061,0.10437817126512527,-0.06344134360551834,28.160871,0.10297442586766545,0.0,-0.02806628867983818,0.9950495958328247,145.1264909,0.0,0.0,75.0,0.0,0.0,162.38,-0.016580627893946133,-0.12245073169469833,-430.0,0.006199339404702187,-37.623553,6.154030942532007,28.200277999999997,267.0,-0.05773981660604477,-0.006275633815675974,17.0,0.07935196161270142,0.07623714208602905,,,,,,,,,,,,,,,,,,,,,,,,,,,,,,,,,
19.262395999999995,0.11273831874132156,-0.06348951905965805,28.320356999999998,0.10297442586766545,0.0,-0.02860472910106182,0.9950482249259949,145.126491,0.0,0.0,75.0,0.0,0.0,162.33,-0.016231562043547264,-0.13358262181282043,-433.0,0.003618992632254958,-37.623553099999995,6.154030942532007,28.360612999999997,267.0,-0.018313145264983177,-0.006113395560532808,17.0,0.09698572754859924,0.07622876763343811,,,,,,,,,,,,,,,,,,,,,,,,,,,,,,,,,
19.482760999999996,0.12344300001859665,-0.0635463148355484,28.561275,0.10297442586766545,0.0,-0.029097070917487144,0.9950433373451233,145.12649109999998,0.0,0.0,76.0,0.0,0.0,162.29,-0.016057029118347832,-0.14471450448036194,-430.0,0.005075318273156881,-37.623553199999996,6.153856409606807,28.580977999999998,268.0,0.03933398798108101,-0.0060612503439188,17.0,0.10580261796712875,0.0762488842010498,,,,,,,,,,,,,,,,,,,,,,,,,,,,,,,,,
19.682491999999996,0.13471679389476776,-0.06355052441358566,28.76136,0.10297442586766545,0.0,-0.029114168137311935,0.9950447082519531,145.12649109999998,0.0,0.0,75.0,0.0,0.0,162.23,-0.015707963267948967,-0.15584638714790344,-434.0,0.006107456050813198,-37.6235533,6.153856409606807,28.780708999999998,268.0,0.08954199403524399,-0.005863903556019068,17.0,0.11461950093507767,0.07624290138483047,,,,,,,,,,,,,,,,,,,,,,,,,,,,,,,,,
19.882674,0.14488443732261658,-0.06350528448820114,28.961053,0.10297442586766545,0.0,-0.03078099526464939,0.9950474500656128,145.12649109999998,0.0,0.0,75.0,0.0,0.0,162.21,-0.0158824961931484,-0.16697826981544495,-437.0,0.005553957540541887,-37.6235533,6.154030942532007,28.980891,266.0,0.1418265700340271,-0.005928365979343653,17.0,0.11461950093507767,0.0762399286031723,,,,,,,,,,,,,,,,,,,,,,,,,,,,,,,,,
20.082896999999996,0.15432599186897278,-0.0635271817445755,29.161347,0.10297442586766545,0.0,-0.030742885544896126,0.9950514435768127,145.1264912,0.0,0.0,75.0,0.0,0.0,162.17000000000002,-0.0153588974175501,-0.16697826981544495,-434.0,0.006945905741304159,-37.6235534,6.154030942532007,29.181113999999997,267.0,0.1941201090812683,-0.0056913988664746284,17.0,0.11461950093507767,0.07618850469589233,,,,,,,,,,,,,,,,,,,,,,,,,,,,,,,,,
20.282897999999996,0.16160862147808075,-0.06345822662115097,29.360809999999997,0.10297442586766545,0.0,-0.031601179391145706,0.995052695274353,145.1264912,0.0,0.0,75.0,0.0,0.0,162.15,-0.015533430342749533,-0.17811015248298645,-431.0,0.007550144102424383,-37.6235534,6.154030942532007,29.381114999999998,266.0,0.24636229872703552,-0.005769293289631605,17.0,0.12343638390302658,0.07622337341308594,,,,,,,,,,,,,,,,,,,,,,,,,,,,,,,,,
20.482681999999997,0.17106659710407257,-0.06337889283895493,29.561255,0.10297442586766545,0.0,-0.032881248742341995,0.9950573444366455,145.1264913,0.0,0.0,74.0,0.0,0.0,162.12,-0.015707963267948967,-0.17811015248298645,-434.0,0.008787699043750763,-37.6235535,6.154205475457205,29.580899,267.0,0.29742416739463806,-0.00589078338816762,17.0,0.12343638390302658,0.07621944695711136,,,,,,,,,,,,,,,,,,,,,,,,,,,,,,,,,
20.682507,0.1780434101819992,-0.06339388340711594,29.761329,0.10297442586766545,0.0,-0.031767889857292175,0.9950574636459351,145.1264913,0.0,0.0,76.0,0.0,0.0,162.1,-0.015707963267948967,-0.18924203515052795,-432.0,0.009611613117158413,-37.6235536,6.154205475457205,29.780724,267.0,0.34720927476882935,-0.0058519295416772366,17.0,0.1322532743215561,0.07620739191770554,,,,,,,,,,,,,,,,,,,,,,,,,,,,,,,,,
20.882768999999996,0.18533886969089508,-0.06335480511188507,29.960777,0.10297442586766545,0.0,-0.03301287814974785,0.9950583577156067,145.1264913,0.0,0.0,75.0,0.0,0.0,162.04,-0.0158824961931484,-0.20037391781806946,-432.0,0.00983968935906887,-37.623553799999996,6.154205475457205,29.980985999999998,267.0,0.3953850567340851,-0.005970007739961147,17.0,0.1322532743215561,0.07621943950653076,,,,,,,,,,,,,,,,,,,,,,,,,,,,,,,,,
21.082490999999997,0.1924578994512558,-0.06337065249681473,30.161108,0.10297442586766545,0.0,-0.033159494400024414,0.9950588345527649,145.1264913,0.0,0.0,77.0,0.0,0.0,162.0,-0.0158824961931484,-0.22263768315315247,-427.0,0.011204698123037815,-37.6235539,6.154205475457205,30.180708,264.0,0.44409728050231934,-0.005920738447457552,17.0,0.1322532743215561,0.07620420306921005,,,,,,,,,,,,,,,,,,,,,,,,,,,,,,,,,
21.282648000000002,0.19935157895088196,-0.06340596079826355,30.360894,0.102799892942466,0.0,-0.034409694373607635,0.9950582385063171,145.1264914,0.0,0.0,76.0,0.0,0.0,161.96,-0.0158824961931484,-0.23376958072185516,-429.0,0.011426785960793495,-37.623554,6.154205475457205,30.380865,265.0,0.4933792054653168,-0.005998761393129826,17.0,0.1322532743215561,0.07617654651403427,,,,,,,,,,,,,,,,,,,,,,,,,,,,,,,,,
21.482701,0.20601725578308105,-0.0635751485824585,30.561166999999998,0.102799892942466,0.0,-0.034532979130744934,0.9950515627861023,145.1264915,0.0,0.0,76.0,0.0,0.0,161.91,-0.015533430342749533,-0.24490146338939667,-433.0,0.013281825929880142,-37.623554,6.153856409606807,30.580917999999997,268.0,0.5428918600082397,-0.005773899145424366,17.0,0.141070157289505,0.07614045590162277,,,,,,,,,,,,,,,,,,,,,,,,,,,,,,,,,
21.682778999999996,0.21225330233573914,-0.06369002908468246,30.761153,0.102799892942466,0.0,-0.03547607734799385,0.995045006275177,145.12649159999998,0.0,0.0,74.0,0.0,0.0,161.89000000000001,-0.015707963267948967,-0.24490146338939667,-434.0,0.012908353470265865,-37.6235542,6.153681876681607,30.780996,267.0,0.5935276746749878,-0.005840360186994076,17.0,0.14988704025745392,0.07612581551074982,,,,,,,,,,,,,,,,,,,,,,,,,,,,,,,,,
21.882556,0.2170954942703247,-0.06367374956607819,30.960604,0.102799892942466,0.0,-0.0363558866083622,0.9950441718101501,145.1264917,0.0,0.0,76.0,0.0,0.0,161.86,-0.016057029118347832,-0.26716524362564087,-436.0,0.011370974592864513,-37.6235542,6.153681876681607,30.980773,266.0,0.6434306502342224,-0.005991877987980843,17.0,0.15870392322540283,0.07613695412874222,,,,,,,,,,,,,,,,,,,,,,,,,,,,,,,,,
22.082595999999995,0.22258302569389343,-0.06361733376979828,31.161161999999997,0.102799892942466,0.0,-0.03702477365732193,0.9950481653213501,145.1264919,0.0,0.0,75.0,0.0,0.0,161.83,-0.0158824961931484,-0.26716524362564087,-433.0,0.012602333910763264,-37.623554299999995,6.153681876681607,31.180812999999997,266.0,0.6919282674789429,-0.005967076402157545,17.0,0.16752080619335175,0.07613474875688553,,,,,,,,,,,,,,,,,,,,,,,,,,,,,,,,,
22.282928999999996,0.2280721515417099,-0.06356443464756012,31.361026,0.10262536001726658,0.0,-0.03733476251363754,0.9950533509254456,145.12649199999998,0.0,0.0,76.0,0.0,0.0,161.79,-0.016057029118347832,-0.2782971262931824,-432.0,0.010976700112223625,-37.623554399999996,6.153856409606807,31.381145999999998,265.0,0.7396621704101562,-0.006038932595402002,17.0,0.18515457212924957,0.07610539346933365,,,,,,,,,,,,,,,,,,,,,,,,,,,,,,,,,
22.482802,0.23274287581443787,-0.06348088383674622,31.561182,0.102799892942466,0.0,-0.039813313633203506,0.9950566291809082,145.12649199999998,0.0,0.0,76.0,0.0,0.0,161.75,-0.016231562043547264,-0.2894290089607239,-438.0,0.010482140816748142,-37.623554399999996,6.154030942532007,31.581018999999998,266.0,0.7870147228240967,-0.006127243395894766,17.0,0.1939714550971985,0.07612569630146027,,,,,,,,,,,,,,,,,,,,,,,,,,,,,,,,,
22.683045,0.23609806597232819,-0.06341150403022766,31.761125,0.10262536001726658,0.0,-0.04056615009903908,0.9950622320175171,145.1264922,0.0,0.0,75.0,0.0,0.0,161.74,-0.016231562043547264,-0.2894290089607239,-432.0,0.010523631237447262,-37.623554399999996,6.154205475457205,31.781261999999998,266.0,0.8339263796806335,-0.006174508482217789,17.0,0.1939714550971985,0.07610607892274857,,,,,,,,,,,,,,,,,,,,,,,,,,,,,,,,,
22.881515,0.2402094304561615,-0.06335780769586563,31.960828,0.10262536001726658,0.0,-0.040720097720623016,0.9950639009475708,145.1264922,0.0,0.0,76.0,0.0,0.0,161.71,-0.016580627893946133,-0.2894290089607239,-431.0,0.010807540267705917,-37.6235545,6.154205475457205,31.979732,267.0,0.8793431520462036,-0.006299520377069712,17.0,0.2116052359342575,0.07611843198537827,,,,,,,,,,,,,,,,,,,,,,,,,,,,,,,,,
23.081502999999998,0.24552883207798004,-0.06329527497291565,32.161318,0.102799892942466,0.0,-0.04081089794635773,0.9950649738311768,145.1264922,0.0,0.0,76.0,0.0,0.0,161.69,-0.016929693744344994,-0.3005608916282654,-434.0,0.011687446385622025,-37.6235546,6.154380008382405,32.179719999999996,265.0,0.9236051440238953,-0.006497825030237436,17.0,0.2116052359342575,0.07613921165466309,,,,,,,,,,,,,,,,,,,,,,,,,,,,,,,,,
23.281481999999997,0.24921372532844543,-0.0633273646235466,32.36096,0.10262536001726658,0.0,-0.04064349830150604,0.9950631260871887,145.1264922,0.0,0.0,76.0,0.0,0.0,161.65,-0.016929693744344994,-0.3116927742958069,-432.0,0.011834712699055672,-37.6235547,6.154205475457205,32.379698999999995,267.0,0.966161847114563,-0.006521804723888636,17.0,0.2116052359342575,0.0761353000998497,,,,,,,,,,,,,,,,,,,,,,,,,,,,,,,,,
23.481645,0.2544182538986206,-0.06343352794647217,32.561174,0.10262536001726658,0.0,-0.04151241108775139,0.995058536529541,145.1264922,0.0,0.0,75.0,0.0,0.0,161.63,-0.016755160819145562,-0.3228246569633484,-435.0,0.011830078437924385,-37.6235547,6.154030942532007,32.579862,265.0,1.0086168050765991,-0.006431104149669409,17.0,0.2116052359342575,0.07611490041017532,,,,,,,,,,,,,,,,,,,,,,,,,,,,,,,,,
23.681525,0.25646543502807617,-0.06352674216032028,32.761264,0.10262536001726658,0.0,-0.04184500873088837,0.9950511455535889,145.1264923,0.0,0.0,76.0,0.0,0.0,161.6,-0.016929693744344994,-0.3228246569633484,-436.0,0.010279498063027859,-37.6235548,6.153856409606807,32.779742,267.0,1.050205945968628,-0.006475632078945637,17.0,0.2116052359342575,0.07612983137369156,,,,,,,,,,,,,,,,,,,,,,,,,,,,,,,,,
23.881487,0.2571314871311188,-0.06353438645601273,32.960813,0.10262536001726658,0.0,-0.042429111897945404,0.995050311088562,145.1264923,0.0,0.0,76.0,0.0,0.0,161.57,-0.016929693744344994,-0.3339565396308899,-433.0,0.01039185095578432,-37.623554899999995,6.153856409606807,32.979704,265.0,1.0902185440063477,-0.006463095545768738,17.0,0.22042211890220642,0.07613499462604523,,,,,,,,,,,,,,,,,,,,,,,,,,,,,,,,,
24.081488999999998,0.25823086500167847,-0.0635199025273323,33.161049,0.10262536001726658,0.0,-0.04379183426499367,0.9950525164604187,145.1264924,0.0,0.0,76.0,0.0,0.0,161.57,-0.016929693744344994,-0.3450884222984314,-433.0,0.009294494986534119,-37.623554899999995,6.153856409606807,33.179705999999996,265.0,1.1294375658035278,-0.006506169214844704,17.0,0.22042211890220642,0.0761142373085022,,,,,,,,,,,,,,,,,,,,,,,,,,,,,,,,,
24.281565999999998,0.2592107951641083,-0.06359570473432541,33.360779,0.10262536001726658,0.0,-0.045011091977357864,0.9950479865074158,145.1264924,0.0,0.0,75.0,0.0,0.0,161.57,-0.016929693744344994,-0.3450884222984314,-433.0,0.007635351736098528,-37.623554999999996,6.153681876681607,33.379782999999996,268.0,1.1665217876434326,-0.006487214006483555,17.0,0.22923900187015533,0.07611268758773804,,,,,,,,,,,,,,,,,,,,,,,,,,,,,,,,,
24.48155,0.25970643758773804,-0.06362655013799667,33.561659999999996,0.10262536001726658,0.0,-0.04433060437440872,0.99504554271698,145.12649249999998,0.0,0.0,76.0,0.0,0.0,161.54,-0.017278759594743863,-0.3562203049659729,-435.0,0.005586042534559965,-37.6235551,6.153681876681607,33.579767,266.0,1.2005529403686523,-0.006598953623324633,17.0,0.22923900187015533,0.07610978931188583,,,,,,,,,,,,,,,,,,,,,,,,,,,,,,,,,
24.681531999999997,0.25984883308410645,-0.06360342353582382,33.761288,0.10262536001726658,0.0,-0.045019518584012985,0.9950478672981262,145.12649249999998,0.0,0.0,78.0,0.0,0.0,161.53,-0.017453292519943295,-0.3673521876335144,-431.0,0.005033660680055618,-37.6235551,6.153681876681607,33.779748999999995,267.0,1.2324367761611938,-0.006695829797536135,17.0,0.23805588483810425,0.07608931511640549,,,,,,,,,,,,,,,,,,,,,,,,,,,,,,,,,
24.881194,0.25957536697387695,-0.06355229765176773,33.960842,0.10262536001726658,0.0,-0.04553986340761185,0.9950517416000366,145.1264926,0.0,0.0,77.0,0.0,0.0,161.53,-0.017278759594743863,-0.3673521876335144,-435.0,0.003596238326281309,-37.6235553,6.153856409606807,33.979411,265.0,1.262750267982483,-0.006665936671197414,17.0,0.23805588483810425,0.07608456164598465,,,,,,,,,,,,,,,,,,,,,,,,,,,,,,,,,
25.101978000000003,0.25737136602401733,-0.06354618072509766,34.161057,0.10262536001726658,0.0,-0.0450381338596344,0.9950515031814575,145.1264928,0.0,0.0,77.0,0.0,0.0,161.51,-0.017627825445142728,-0.3896159529685974,-431.0,0.0030727596022188663,-37.6235554,6.153856409606807,34.200195,265.0,1.2904245853424072,-0.006798019632697105,17.0,0.24687276780605316,0.07608082890510559,,,,,,,,,,,,,,,,,,,,,,,,,,,,,,,,,
25.281596,0.25608372688293457,-0.06361428648233414,34.360602,0.10245082709206714,0.0,-0.045097675174474716,0.9950498342514038,145.1264929,0.0,0.0,76.0,0.0,0.0,161.49,-0.017627825445142728,-0.4007478356361389,-430.0,0.0015531034441664815,-37.623555499999995,6.153681876681607,34.379813,264.0,1.315898060798645,-0.006773699540644884,17.0,0.2645065486431122,0.07604745030403137,,,,,,,,,,,,,,,,,,,,,,,,,,,,,,,,,
25.481518,0.2559429109096527,-0.06373721361160278,34.561622,0.10245082709206714,0.0,-0.04605991020798683,0.9950420260429382,145.12649299999998,0.0,0.0,76.0,0.0,0.0,161.49,-0.017278759594743863,-0.4118797183036804,-431.0,0.0001864032237790525,-37.6235557,6.153332810831208,34.579735,264.0,1.3404659032821655,-0.006619502790272236,17.0,0.2733234167098999,0.07605991512537003,,,,,,,,,,,,,,,,,,,,,,,,,,,,,,,,,
25.681932000000003,0.25527438521385193,-0.06375069916248322,34.761187,0.10262536001726658,0.0,-0.04682568833231926,0.9950384497642517,145.1264931,0.0,0.0,76.0,0.0,0.0,161.48,-0.017453292519943295,-0.4341434836387634,-432.0,-0.0019144401885569096,-37.6235559,6.153332810831208,34.780149,266.0,1.363425850868225,-0.006751151755452156,17.0,0.28214031457901,0.07608447968959808,,,,,,,,,,,,,,,,,,,,,,,,,,,,,,,,,
25.881593000000002,0.2546261250972748,-0.06383228302001953,34.960414,0.10245082709206714,0.0,-0.048245467245578766,0.9950371980667114,145.1264932,0.0,0.0,76.0,0.0,0.0,161.47,-0.017278759594743863,-0.4564072787761688,-431.0,-0.003608995582908392,-37.623556,6.153158277906009,34.97981,266.0,1.3846309185028076,-0.006606449838727713,17.0,0.29095718264579773,0.07604487240314484,,,,,,,,,,,,,,,,,,,,,,,,,,,,,,,,,
26.062075999999998,0.25353947281837463,-0.06384430825710297,35.120664999999995,0.10262536001726658,0.0,-0.04894803464412689,0.9950332045555115,145.1264932,0.0,0.0,76.0,0.0,0.0,161.46,-0.017453292519943295,-0.4675391614437103,-433.0,-0.005155540071427822,-37.623556,6.153158277906009,35.160292999999996,266.0,1.399802803993225,-0.006677266675978899,17.0,0.29977408051490784,0.07608083635568619,,,,,,,,,,,,,,,,,,,,,,,,,,,,,,,,,
26.281554,0.24926267564296722,-0.06386256217956543,35.360838,0.10245082709206714,0.0,-0.04973726347088814,0.9950360059738159,145.1264933,0.0,0.0,76.0,0.0,0.0,161.48,-0.016929693744344994,-0.4675391614437103,-434.0,-0.007851673290133476,-37.623556,6.153158277906009,35.379771,267.0,1.423303246498108,-0.006485963240265846,17.0,0.29977408051490784,0.07604587078094482,,,,,,,,,,,,,,,,,,,,,,,,,,,,,,,,,
26.481585000000003,0.24635449051856995,-0.06376523524522781,35.561254,0.10245082709206714,0.0,-0.05097176507115364,0.9950422048568726,145.1264934,0.0,0.0,76.0,0.0,0.0,161.48,-0.017278759594743863,-0.4675391614437103,-432.0,-0.007956814020872116,-37.623556,6.153332810831208,35.579802,265.0,1.4387776851654053,-0.006672412157058716,17.0,0.30859094858169556,0.07602985948324203,,,,,,,,,,,,,,,,,,,,,,,,,,,,,,,,,
26.681576999999997,0.2436639368534088,-0.06374286860227585,35.761294,0.10245082709206714,0.0,-0.05152144283056259,0.9950438737869263,145.1264934,0.0,0.0,75.0,0.0,0.0,161.47,-0.017278759594743863,-0.4675391614437103,-432.0,-0.007916678674519062,-37.6235561,6.153332810831208,35.779793999999995,266.0,1.451993465423584,-0.006648332811892033,17.0,0.31740784645080566,0.07602941244840622,,,,,,,,,,,,,,,,,,,,,,,,,,,,,,,,,
26.881642999999997,0.2403404414653778,-0.06370283663272858,35.960622,0.10245082709206714,0.0,-0.052537139505147934,0.9950460195541382,145.1264934,0.0,0.0,76.0,0.0,0.0,161.45000000000002,-0.017453292519943295,-0.47867104411125183,-435.0,-0.009312238544225693,-37.623556199999996,6.153507343756408,35.979859999999995,267.0,1.4635295867919922,-0.006705744192004204,17.0,0.31740784645080566,0.07602991163730621,,,,,,,,,,,,,,,,,,,,,,,,,,,,,,,,,
27.101919000000002,0.23779833316802979,-0.06366638094186783,36.160775,0.10245082709206714,0.0,-0.05245678126811981,0.9950494170188904,145.1264934,0.0,0.0,77.0,0.0,0.0,161.42000000000002,-0.017278759594743863,-0.48980292677879333,-430.0,-0.010237464681267738,-37.6235563,6.153507343756408,36.200136,267.0,1.4742008447647095,-0.006642135791480541,17.0,0.31740784645080566,0.07602111250162125,,,,,,,,,,,,,,,,,,,,,,,,,,,,,,,,,
27.281570000000002,0.23403717577457428,-0.06362942606210709,36.360861,0.10245082709206714,0.0,-0.05302899703383446,0.9950514435768127,145.1264933,0.0,0.0,76.0,0.0,0.0,161.41,-0.017453292519943295,-0.5009347796440125,-434.0,-0.009605980478227139,-37.6235564,6.153681876681607,36.379787,267.0,1.4855422973632812,-0.006694921758025885,17.0,0.31740784645080566,0.0760205090045929,,,,,,,,,,,,,,,,,,,,,,,,,,,,,,,,,
27.481194000000002,0.23065079748630524,-0.06363273411989212,36.561423,0.10245082709206714,0.0,-0.05317017063498497,0.995049774646759,145.1264933,0.0,0.0,76.0,0.0,0.0,161.41,-0.01710422666954443,-0.512066662311554,-432.0,-0.00969504565000534,-37.6235565,6.153681876681607,36.579411,267.0,1.4968929290771484,-0.006594167556613684,17.0,0.30859094858169556,0.07604904472827911,,,,,,,,,,,,,,,,,,,,,,,,,,,,,,,,,
27.681762999999997,0.2286159098148346,-0.0637161135673523,36.761255999999996,0.10245082709206714,0.0,-0.0536247193813324,0.9950454235076904,145.1264934,0.0,0.0,76.0,0.0,0.0,161.41,-0.01710422666954443,-0.5231985449790955,-433.0,-0.010018844157457352,-37.6235566,6.153507343756408,36.779979999999995,265.0,1.5075976848602295,-0.006544903386384249,17.0,0.30859094858169556,0.07603997737169266,,,,,,,,,,,,,,,,,,,,,,,,,,,,,,,,,
27.881572,0.22267045080661774,-0.06364696472883224,36.960744999999996,0.10262536001726658,0.0,-0.054855067282915115,0.9950475692749023,145.1264933,0.0,0.0,77.0,0.0,0.0,161.42000000000002,-0.01710422666954443,-0.5343304872512817,-430.0,-0.012533039785921574,-37.6235566,6.153681876681607,36.979789,266.0,1.516852855682373,-0.006579376291483641,17.0,0.31740784645080566,0.07606729865074158,,,,,,,,,,,,,,,,,,,,,,,,,,,,,,,,,
28.0815,0.22018970549106598,-0.06364234536886215,37.161184,0.10262536001726658,0.0,-0.05475713312625885,0.9950482249259949,145.1264932,0.0,0.0,76.0,0.0,0.0,161.41,-0.01710422666954443,-0.5343304872512817,-433.0,-0.01264672726392746,-37.6235566,6.153681876681607,37.179717,267.0,1.5243496894836426,-0.006594983395189047,17.0,0.30859094858169556,0.07606150209903717,,,,,,,,,,,,,,,,,,,,,,,,,,,,,,,,,
28.281484,0.21551063656806946,-0.06368015706539154,37.36082,0.10245082709206714,0.0,-0.056440550833940506,0.9950456023216248,145.1264931,0.0,0.0,77.0,0.0,0.0,161.41,-0.017278759594743863,-0.5343304872512817,-432.0,-0.01161837950348854,-37.6235565,6.153507343756408,37.379701,268.0,1.5306228399276733,-0.00662284716963768,17.0,0.29977408051490784,0.0760609358549118,,,,,,,,,,,,,,,,,,,,,,,,,,,,,,,,,
28.481518,0.21098077297210693,-0.06372436881065369,37.561257999999995,0.10245082709206714,0.0,-0.05792810395359993,0.9950448274612427,145.12649299999998,0.0,0.0,77.0,0.0,0.0,161.42000000000002,-0.01710422666954443,-0.5231985449790955,-429.0,-0.011441109701991081,-37.6235564,6.153507343756408,37.579735,266.0,1.5353952646255493,-0.006535372696816921,17.0,0.29095718264579773,0.07604172080755234,,,,,,,,,,,,,,,,,,,,,,,,,,,,,,,,,
28.681556,0.20625558495521545,-0.06379464268684387,37.761219,0.10262536001726658,0.0,-0.058772869408130646,0.9950392842292786,145.12649299999998,0.0,0.0,77.0,0.0,0.0,161.44,-0.01710422666954443,-0.512066662311554,-430.0,-0.011395360343158245,-37.6235564,6.153332810831208,37.779773,267.0,1.5387145280838013,-0.006506690755486488,17.0,0.28214031457901,0.07605887204408646,,,,,,,,,,,,,,,,,,,,,,,,,,,,,,,,,
28.862183,0.2022119015455246,-0.06383286416530609,37.920271,0.10245082709206714,0.0,-0.06030447408556938,0.9950372576713562,145.1264929,0.0,0.0,75.0,0.0,0.0,161.41,-0.016929693744344994,-0.512066662311554,-429.0,-0.010885832831263542,-37.6235564,6.153158277906009,37.9604,267.0,1.5382907390594482,-0.0064823501743376255,17.0,0.28214031457901,0.07605460286140442,,,,,,,,,,,,,,,,,,,,,,,,,,,,,,,,,
29.081587,0.19706390798091888,-0.06380852311849594,38.161069999999995,0.10262536001726658,0.0,-0.062063153833150864,0.9950360059738159,145.1264929,0.0,0.0,77.0,0.0,0.0,161.4,-0.017278759594743863,-0.512066662311554,-427.0,-0.009216614998877048,-37.6235564,6.153332810831208,38.179804,265.0,1.5400465726852417,-0.006611252203583717,17.0,0.2733234167098999,0.07607966661453247,,,,,,,,,,,,,,,,,,,,,,,,,,,,,,,,,
29.281478,0.1915876418352127,-0.06380804628133774,38.360822,0.10262536001726658,0.0,-0.061451464891433716,0.9950367212295532,145.1264928,0.0,0.0,76.0,0.0,0.0,161.38,-0.016929693744344994,-0.512066662311554,-434.0,-0.008100073784589767,-37.6235564,6.153332810831208,38.379695,265.0,1.540655255317688,-0.006438372656702995,17.0,0.2733234167098999,0.0760854184627533,,,,,,,,,,,,,,,,,,,,,,,,,,,,,,,,,
29.481485999999997,0.1879993975162506,-0.06384463608264923,38.561172,0.10262536001726658,0.0,-0.06267006695270538,0.995035707950592,145.1264927,0.0,0.0,76.0,0.0,0.0,161.35,-0.016755160819145562,-0.512066662311554,-430.0,-0.008320387452840805,-37.6235564,6.153158277906009,38.579702999999995,266.0,1.5417921543121338,-0.006366138346493244,17.0,0.2645065486431122,0.07607515156269073,,,,,,,,,,,,,,,,,,,,,,,,,,,,,,,,,
29.681494,0.18395189940929413,-0.06384635716676712,38.761371,0.10262536001726658,0.0,-0.06336735188961029,0.9950346946716309,145.1264928,0.0,0.0,76.0,0.0,0.0,161.32,-0.016755160819145562,-0.512066662311554,-429.0,-0.007579986471682787,-37.6235565,6.153158277906009,38.779711,266.0,1.5440586805343628,-0.006341608241200447,17.0,0.2556896507740021,0.07608939707279205,,,,,,,,,,,,,,,,,,,,,,,,,,,,,,,,,
29.881498999999998,0.18043753504753113,-0.06391449272632599,38.960752,0.10262536001726658,0.0,-0.06374183297157288,0.9950306415557861,145.1264928,0.0,0.0,77.0,0.0,0.0,161.29,-0.016580627893946133,-0.5231985449790955,-430.0,-0.006652955897152424,-37.6235566,6.153158277906009,38.979715999999996,266.0,1.548181176185608,-0.0062403311021625996,17.0,0.2645065486431122,0.07609187811613083,,,,,,,,,,,,,,,,,,,,,,,,,,,,,,,,,
30.081584999999997,0.176858589053154,-0.06411059200763702,39.161164,0.10262536001726658,0.0,-0.06572005897760391,0.9950217604637146,145.1264928,0.0,0.0,75.0,0.0,0.0,161.25,-0.0158824961931484,-0.5343304872512817,-431.0,-0.004881914705038071,-37.6235566,6.152809212055611,39.179801999999995,266.0,1.5541210174560547,-0.005943672731518745,17.0,0.2645065486431122,0.07606739550828934,,,,,,,,,,,,,,,,,,,,,,,,,,,,,,,,,
30.262107999999998,0.1756209284067154,-0.06417767703533173,39.320161,0.10262536001726658,0.0,-0.06528282910585403,0.9950194358825684,145.1264928,0.0,0.0,75.0,0.0,0.0,161.21,-0.0158824961931484,-0.5343304872512817,-433.0,-0.004356001503765583,-37.6235567,6.1526346791304105,39.360324999999996,267.0,1.5596556663513184,-0.005873328074812889,17.0,0.2645065486431122,0.07604615390300751,,,,,,,,,,,,,,,,,,,,,,,,,,,,,,,,,
30.481476,0.17362084984779358,-0.06409569084644318,39.561332,0.10262536001726658,0.0,-0.0664093866944313,0.9950223565101624,145.1264927,0.0,0.0,77.0,0.0,0.0,161.19,-0.016057029118347832,-0.5454623699188232,-429.0,-0.0033419965766370296,-37.623556799999996,6.152809212055611,39.579693,265.0,1.5728721618652344,-0.005987308919429779,17.0,0.2645065486431122,0.07606939226388931,,,,,,,,,,,,,,,,,,,,,,,,,,,,,,,,,
30.681841,0.17166483402252197,-0.06411736458539963,39.761237,0.10262536001726658,0.0,-0.06739529222249985,0.9950264096260071,145.1264928,0.0,0.0,75.0,0.0,0.0,161.12,-0.015533430342749533,-0.5565942525863647,-432.0,-0.0005643607000820339,-37.6235569,6.152809212055611,39.780058,266.0,1.5852365493774414,-0.0057578012347221375,17.0,0.2556896507740021,0.07601544260978699,,,,,,,,,,,,,,,,,,,,,,,,,,,,,,,,,
30.881557,0.17035652697086334,-0.06400030106306076,39.960842,0.10262536001726658,0.0,-0.06781406700611115,0.9950306415557861,145.1264928,0.0,0.0,75.0,0.0,0.0,161.11,-0.0158824961931484,-0.5677261352539062,-430.0,-0.001811982481740415,-37.6235569,6.152983744980809,39.979774,267.0,1.6006560325622559,-0.005941787734627724,17.0,0.2645065486431122,0.0760447084903717,,,,,,,,,,,,,,,,,,,,,,,,,,,,,,,,,
31.101995000000002,0.16918593645095825,-0.06391488015651703,40.161189,0.10262536001726658,0.0,-0.06895598769187927,0.9950340986251831,145.12649299999998,0.0,0.0,75.0,0.0,0.0,161.05,-0.016057029118347832,-0.5677261352539062,-431.0,-0.0019456262234598398,-37.6235569,6.153158277906009,40.200212,267.0,1.6174510717391968,-0.0060296496376395226,17.0,0.2645065486431122,0.07606438547372818,,,,,,,,,,,,,,,,,,,,,,,,,,,,,,,,,
31.281588999999997,0.16690295934677124,-0.06389369815587997,40.360806,0.10262536001726658,0.0,-0.07057264447212219,0.9950367212295532,145.1264932,0.0,0.0,75.0,0.0,0.0,161.01,-0.0158824961931484,-0.5677261352539062,-432.0,-0.00013475253945216537,-37.6235571,6.153158277906009,40.379805999999995,267.0,1.6367310285568237,-0.005945032928138971,17.0,0.28214031457901,0.07605516165494919,,,,,,,,,,,,,,,,,,,,,,,,,,,,,,,,,
31.481512000000002,0.1674986481666565,-0.06388713419437408,40.561268,0.10245082709206714,0.0,-0.07022729516029358,0.9950395822525024,145.1264933,0.0,0.0,74.0,0.0,0.0,160.95000000000002,-0.016057029118347832,-0.5899899005889893,-430.0,0.0009813173674046993,-37.6235573,6.153158277906009,40.579729,267.0,1.6581025123596191,-0.005995735060423613,17.0,0.29977408051490784,0.07601752877235413,,,,,,,,,,,,,,,,,,,,,,,,,,,,,,,,,
31.662053999999998,0.16743142902851105,-0.063773013651371,40.721128,0.10262536001726658,0.0,-0.07059767097234726,0.9950457811355591,145.1264934,0.0,0.0,75.0,0.0,0.0,160.93,-0.016057029118347832,-0.6122536659240723,-432.0,0.00032905430998653173,-37.623557399999996,6.153507343756408,40.760270999999996,266.0,1.676932692527771,-0.006060885265469551,17.0,0.30859094858169556,0.07602860033512115,,,,,,,,,,,,,,,,,,,,,,,,,,,,,,,,,
31.881534000000002,0.16773681342601776,-0.06366755068302155,40.960654999999996,0.10262536001726658,0.0,-0.07236242294311523,0.9950513243675232,145.1264934,0.0,0.0,74.0,0.0,0.0,160.9,-0.016057029118347832,-0.6233855485916138,-433.0,0.004187406040728092,-37.623557399999996,6.153681876681607,40.979751,266.0,1.7080343961715698,-0.006010259035974741,17.0,0.31740784645080566,0.0760478675365448,,,,,,,,,,,,,,,,,,,,,,,,,,,,,,,,,
32.081531,0.16761645674705505,-0.06349807232618332,41.161266999999995,0.10262536001726658,0.0,-0.07316622138023376,0.9950590133666992,145.12649349999998,0.0,0.0,76.0,0.0,0.0,160.87,-0.016580627893946133,-0.6233855485916138,-432.0,0.006862624082714319,-37.6235576,6.154030942532007,41.179748,267.0,1.7344728708267212,-0.0062889475375413895,17.0,0.31740784645080566,0.07606588304042816,,,,,,,,,,,,,,,,,,,,,,,,,,,,,,,,,
32.281841,0.1680215299129486,-0.06349417567253113,41.360608,0.10262536001726658,0.0,-0.07302521169185638,0.9950611591339111,145.1264934,0.0,0.0,75.0,0.0,0.0,160.82,-0.016057029118347832,-0.6456493139266968,-436.0,0.009273984469473362,-37.6235576,6.154030942532007,41.380058,266.0,1.7613742351531982,-0.00607294263318181,17.0,0.3262247145175934,0.07605960220098495,,,,,,,,,,,,,,,,,,,,,,,,,,,,,,,,,
32.481527,0.1688336879014969,-0.06338001787662506,41.561231,0.10262536001726658,0.0,-0.07333534955978394,0.9950630068778992,145.1264932,0.0,0.0,75.0,0.0,0.0,160.78,-0.016929693744344994,-0.6456493139266968,-434.0,0.009566230699419975,-37.6235577,6.154205475457205,41.579744,265.0,1.789796233177185,-0.006487090606242418,17.0,0.31740784645080566,0.07609643787145615,,,,,,,,,,,,,,,,,,,,,,,,,,,,,,,,,
32.681541,0.17077691853046417,-0.06339151412248611,41.761209,0.10262536001726658,0.0,-0.07391418516635895,0.9950660467147827,145.1264933,0.0,0.0,74.0,0.0,0.0,160.76,-0.016231562043547264,-0.6567811965942383,-435.0,0.014145123772323132,-37.6235578,6.154205475457205,41.779758,267.0,1.8195445537567139,-0.006147278472781181,17.0,0.29977408051490784,0.07607495784759521,,,,,,,,,,,,,,,,,,,,,,,,,,,,,,,,,
32.881625,0.17191153764724731,-0.06340668350458145,41.960875,0.10262536001726658,0.0,-0.07550168037414551,0.9950682520866394,145.1264934,0.0,0.0,76.0,0.0,0.0,160.74,-0.015707963267948967,-0.6679130792617798,-432.0,0.016044968739151955,-37.6235579,6.154205475457205,41.979842,267.0,1.8497272729873657,-0.005875582806766033,17.0,0.30859094858169556,0.07605438679456711,,,,,,,,,,,,,,,,,,,,,,,,,,,,,,,,,
33.062145,0.1741570383310318,-0.06324338912963867,42.120622999999995,0.10262536001726658,0.0,-0.07512491941452026,0.9950711131095886,145.1264933,0.0,0.0,76.0,0.0,0.0,160.78,-0.016929693744344994,-0.6790449619293213,-431.0,0.011805849149823189,-37.6235577,6.154380008382405,42.160362,265.0,1.8738176822662354,-0.006511653773486614,17.0,0.31740784645080566,0.07610125839710236,,,,,,,,,,,,,,,,,,,,,,,,,,,,,,,,,
33.28151,0.17698118090629578,-0.06340846419334412,42.36109,0.10262536001726658,0.0,-0.07663584500551224,0.9950699210166931,145.12649299999998,0.0,0.0,77.0,0.0,0.0,160.79,-0.0158824961931484,-0.6567811965942383,-436.0,0.018543176352977753,-37.6235576,6.154205475457205,42.379726999999995,266.0,1.908081293106079,-0.005939145106822252,17.0,0.30859094858169556,0.07602667063474655,,,,,,,,,,,,,,,,,,,,,,,,,,,,,,,,,
33.481604,0.17667321860790253,-0.06348995119333267,42.56128,0.10245082709206714,0.0,-0.07533743977546692,0.9950660467147827,145.1264933,0.0,0.0,76.0,0.0,0.0,160.8,-0.0158824961931484,-0.6456493139266968,-433.0,0.017739878967404366,-37.6235577,6.154030942532007,42.579820999999995,266.0,1.9325637817382812,-0.005932004190981388,17.0,0.28214031457901,0.07600942999124527,,,,,,,,,,,,,,,,,,,,,,,,,,,,,,,,,
33.681611,0.17801375687122345,-0.06361933797597885,42.761303999999996,0.10245082709206714,0.0,-0.07631625235080719,0.9950641393661499,145.1264934,0.0,0.0,76.0,0.0,0.0,160.78,-0.0153588974175501,-0.6567811965942383,-434.0,0.01574788987636566,-37.6235578,6.153856409606807,42.779827999999995,266.0,1.9541279077529907,-0.005676663015037775,17.0,0.30859094858169556,0.0759461298584938,,,,,,,,,,,,,,,,,,,,,,,,,,,,,,,,,
33.881194,0.1752486675977707,-0.0636768639087677,42.961096,0.10245082709206714,0.0,-0.07661768794059753,0.9950635433197021,145.12649349999998,0.0,0.0,74.0,0.0,0.0,160.74,-0.015009831567151233,-0.6679130792617798,-435.0,0.012888438999652863,-37.6235579,6.153681876681607,42.979411,266.0,1.9738808870315552,-0.005547208711504936,17.0,0.31740784645080566,0.07591431587934494,,,,,,,,,,,,,,,,,,,,,,,,,,,,,,,,,
34.081511,0.17469562590122223,-0.06355652213096619,43.16111,0.10245082709206714,0.0,-0.07772215455770493,0.9950687289237976,145.1264937,0.0,0.0,76.0,0.0,0.0,160.71,-0.015533430342749533,-0.6790449619293213,-431.0,0.012821350246667862,-37.623557999999996,6.153856409606807,43.179728,265.0,1.9932891130447388,-0.005829153582453728,17.0,0.3262247145175934,0.0759267583489418,,,,,,,,,,,,,,,,,,,,,,,,,,,,,,,,,
34.28151,0.171918585896492,-0.06335766613483429,43.361179,0.10245082709206714,0.0,-0.07591592520475388,0.9950769543647766,145.1264938,0.0,0.0,75.0,0.0,0.0,160.72,-0.0164060949687467,-0.6901768445968628,-432.0,0.018286768347024918,-37.623557999999996,6.154205475457205,43.379726999999995,265.0,2.0143589973449707,-0.006250671576708555,17.0,0.3438584804534912,0.07595107704401016,,,,,,,,,,,,,,,,,,,,,,,,,,,,,,,,,
34.462068,0.17429018020629883,-0.06328587979078293,43.520120999999996,0.10227629416686772,0.0,-0.07738979160785675,0.9950798749923706,145.12649389999999,0.0,0.0,76.0,0.0,0.0,160.72,-0.017278759594743863,-0.6901768445968628,-432.0,0.015177653171122074,-37.623557999999996,6.154380008382405,43.560285,266.0,2.028815507888794,-0.006635566242039204,17.0,0.3526753783226013,0.07594075798988342,,,,,,,,,,,,,,,,,,,,,,,,,,,,,,,,,
34.681528,0.17368893325328827,-0.06332102417945862,43.761385999999995,0.10227629416686772,0.0,-0.07804568111896515,0.9950825572013855,145.12649399999998,0.0,0.0,75.0,0.0,0.0,160.69,-0.016580627893946133,-0.6901768445968628,-433.0,0.016256624832749367,-37.6235581,6.154380008382405,43.779745,266.0,2.0509157180786133,-0.0063031017780303955,17.0,0.3614922761917114,0.07590432465076447,,,,,,,,,,,,,,,,,,,,,,,,,,,,,,,,,
34.881534,0.17338265478610992,-0.06328406184911728,43.960609,0.10227629416686772,0.0,-0.07850847393274307,0.9950835704803467,145.1264941,0.0,0.0,75.0,0.0,0.0,160.69,-0.016755160819145562,-0.7013087272644043,-433.0,0.01543308887630701,-37.6235581,6.154380008382405,43.979751,265.0,2.068222999572754,-0.006373490206897259,17.0,0.37030914425849915,0.07591626793146133,,,,,,,,,,,,,,,,,,,,,,,,,,,,,,,,,
35.101779,0.17306548357009888,-0.06311818957328796,44.161052999999995,0.10227629416686772,0.0,-0.07526357471942902,0.9950904250144958,145.1264942,0.0,0.0,76.0,0.0,0.0,160.65,-0.017278759594743863,-0.7013087272644043,-433.0,0.016887059435248375,-37.6235582,6.154729074232804,44.199996,265.0,2.0849950313568115,-0.0066530704498291016,17.0,0.37912604212760925,0.07593975961208344,,,,,,,,,,,,,,,,,,,,,,,,,,,,,,,,,
35.281503,0.17213131487369537,-0.06322160363197327,44.360769999999995,0.10227629416686772,0.0,-0.07783312350511551,0.9950891733169556,145.1264942,0.0,0.0,76.0,0.0,0.0,160.61,-0.016755160819145562,-0.7124406099319458,-435.0,0.012561263516545296,-37.6235583,6.154554541307604,44.37972,264.0,2.1020243167877197,-0.006433349568396807,17.0,0.387942910194397,0.07588987797498703,,,,,,,,,,,,,,,,,,,,,,,,,,,,,,,,,
35.481528,0.16989080607891083,-0.0631038025021553,44.561251999999996,0.10227629416686772,0.0,-0.08065909892320633,0.9951001405715942,145.1264943,0.0,0.0,76.0,0.0,0.0,160.58,-0.015707963267948967,-0.7235724925994873,-433.0,0.015618572011590004,-37.6235584,6.154729074232804,44.579744999999996,265.0,2.1200242042541504,-0.005922751501202583,17.0,0.387942910194397,0.07588545233011246,,,,,,,,,,,,,,,,,,,,,,,,,,,,,,,,,
35.681607,0.16915202140808105,-0.06312768906354904,44.761204,0.10227629416686772,0.0,-0.0805269107222557,0.9951022863388062,145.12649439999998,0.0,0.0,75.0,0.0,0.0,160.59,-0.014835298641951801,-0.7347043752670288,-437.0,0.01118513010442257,-37.6235584,6.154903607158004,44.779824,264.0,2.139317512512207,-0.00548183498904109,17.0,0.3967597782611847,0.07587136328220367,,,,,,,,,,,,,,,,,,,,,,,,,,,,,,,,,
35.862027,0.16959123313426971,-0.06303416192531586,44.920333,0.10227629416686772,0.0,-0.07878647744655609,0.9951079487800598,145.1264945,0.0,0.0,74.0,0.0,0.0,160.6,-0.015184364492350668,-0.7347043752670288,-432.0,0.012749643065035343,-37.6235584,6.154903607158004,44.960243999999996,265.0,2.1540186405181885,-0.0056379190646111965,17.0,0.4055766761302948,0.07586222141981125,,,,,,,,,,,,,,,,,,,,,,,,,,,,,,,,,
36.081539,0.16993384063243866,-0.06304814666509628,45.160775,0.10210176124166828,0.0,-0.07948077470064163,0.9951143264770508,145.1264945,0.0,0.0,73.0,0.0,0.0,160.58,-0.015009831567151233,-0.7347043752670288,-433.0,0.013479463756084442,-37.6235584,6.154903607158004,45.179756,264.0,2.1753196716308594,-0.0055878134444355965,17.0,0.4143935441970825,0.07577051967382431,,,,,,,,,,,,,,,,,,,,,,,,,,,,,,,,,
36.301964,0.17122018337249756,-0.06289409846067429,45.360481,0.10210176124166828,0.0,-0.07779505848884583,0.9951303601264954,145.1264946,0.0,0.0,74.0,0.0,0.0,160.57,-0.014137166941154071,-0.7347043752670288,-431.0,0.02099590003490448,-37.6235585,6.155427205933601,45.400180999999996,264.0,2.191589117050171,-0.005157266743481159,17.0,0.4143935441970825,0.07571817189455032,,,,,,,,,,,,,,,,,,,,,,,,,,,,,,,,,
36.481437,0.16526171565055847,-0.06251607090234756,45.561212999999995,0.10210176124166828,0.0,-0.07912227511405945,0.9951584339141846,145.1264947,0.0,0.0,72.0,0.0,0.0,160.54,-0.012915436464758038,-0.7458362579345703,-436.0,0.009610972367227077,-37.623558599999996,6.1561253376344,45.579654,265.0,2.2071149349212646,-0.004547896794974804,17.0,0.423210471868515,0.0757022425532341,,,,,,,,,,,,,,,,,,,,,,,,,,,,,,,,,
36.68163,0.1700844168663025,-0.062478113919496536,45.761181,0.10227629416686772,0.0,-0.07481291890144348,0.9951698780059814,145.1264948,0.0,0.0,71.0,0.0,0.0,160.52,-0.009948376736367679,-0.7569681406021118,-436.0,0.01432475820183754,-37.6235587,6.156474403484798,45.779847,265.0,2.222271203994751,-0.0030835240613669157,17.0,0.4320273697376251,0.07565657049417496,,,,,,,,,,,,,,,,,,,,,,,,,,,,,,,,,
36.881478,0.15955959260463715,-0.06264568120241165,45.960696999999996,0.10192722831646885,0.0,-0.0838862732052803,0.9951580166816711,145.12649489999998,0.0,0.0,71.0,0.0,0.0,160.52,-0.012217304763960308,-0.7681000232696533,-437.0,-0.0005102756549604237,-37.6235587,6.1559508047091995,45.979695,265.0,2.2381978034973145,-0.004212618339806795,17.0,0.44084423780441284,0.07561984658241272,,,,,,,,,,,,,,,,,,,,,,,,,,,,,,,,,
37.081514,0.1619686335325241,-0.0627928078174591,46.160633999999995,0.10192722831646885,0.0,-0.07939982414245605,0.9951290488243103,145.126495,0.0,0.0,73.0,0.0,0.0,160.52,-0.016231562043547264,-0.7681000232696533,-434.0,0.009084861725568771,-37.6235588,6.155427205933601,46.179731,265.0,2.253394842147827,-0.0062203314155340195,17.0,0.44966113567352295,0.07574088871479034,,,,,,,,,,,,,,,,,,,,,,,,,,,,,,,,,
37.281147,0.16428452730178833,-0.06277631968259811,46.360955,0.10192722831646885,0.0,-0.0759027972817421,0.9951328635215759,145.126495,0.0,0.0,73.0,0.0,0.0,160.51,-0.0158824961931484,-0.7792319059371948,-432.0,0.014154535718262196,-37.6235589,6.155427205933601,46.379363999999995,266.0,2.2675540447235107,-0.006048235576599836,17.0,0.45847800374031067,0.07571741938591003,,,,,,,,,,,,,,,,,,,,,,,,,,,,,,,,,
37.481509,0.1608567088842392,-0.06265721470117569,46.561164999999995,0.10192722831646885,0.0,-0.07732460647821426,0.9951412677764893,145.1264951,0.0,0.0,73.0,0.0,0.0,160.53,-0.016231562043547264,-0.7903637886047363,-433.0,0.012147591449320316,-37.6235589,6.155601738858801,46.579726,265.0,2.280970573425293,-0.006243519019335508,17.0,0.45847800374031067,0.07569101452827454,,,,,,,,,,,,,,,,,,,,,,,,,,,,,,,,,
37.681647,0.15811358392238617,-0.06235614791512489,46.761207,0.10192722831646885,0.0,-0.07752478867769241,0.9951549172401428,145.1264952,0.0,0.0,73.0,0.0,0.0,160.55,-0.017278759594743863,-0.7903637886047363,-431.0,0.007228625938296318,-37.623559,6.1561253376344,46.779863999999996,265.0,2.292559862136841,-0.006780135910958052,17.0,0.4672949016094208,0.07571284472942352,,,,,,,,,,,,,,,,,,,,,,,,,,,,,,,,,
37.881627,0.15799760818481445,-0.06227625906467438,46.960378999999996,0.10192722831646885,0.0,-0.07469203323125839,0.9951598644256592,145.1264951,0.0,0.0,72.0,0.0,0.0,160.56,-0.017278759594743863,-0.8014956712722778,-431.0,0.010483436286449432,-37.623559,6.156299870559599,46.979844,264.0,2.301461935043335,-0.006727827712893486,17.0,0.4761117696762085,0.07571838796138763,,,,,,,,,,,,,,,,,,,,,,,,,,,,,,,,,
38.08149,0.1549644023180008,-0.06216321885585785,47.160855999999995,0.10175269539126941,0.0,-0.07734375447034836,0.9951732754707336,145.1264953,0.0,0.0,72.0,0.0,0.0,160.59,-0.0164060949687467,-0.8014956712722778,-430.0,0.008549648337066174,-37.6235589,6.156648936409997,47.179707,264.0,2.3083646297454834,-0.006329745054244995,17.0,0.4672949016094208,0.0756690576672554,,,,,,,,,,,,,,,,,,,,,,,,,,,,,,,,,
38.281478,0.15194344520568848,-0.06202145293354988,47.361047,0.10175269539126941,0.0,-0.07555323094129562,0.9951813817024231,145.1264953,0.0,0.0,74.0,0.0,0.0,160.59,-0.016580627893946133,-0.7903637886047363,-429.0,0.008016751147806644,-37.623559,6.156998002260396,47.379695,264.0,2.312114953994751,-0.006420519668608904,17.0,0.4849286675453186,0.07567178457975388,,,,,,,,,,,,,,,,,,,,,,,,,,,,,,,,,
38.481151,0.14902471005916595,-0.06193462014198303,47.561375999999996,0.10175269539126941,0.0,-0.07702525705099106,0.9951887130737305,145.12649539999998,0.0,0.0,74.0,0.0,0.0,160.59,-0.016231562043547264,-0.8014956712722778,-428.0,0.00940949097275734,-37.6235591,6.157172535185596,47.579367999999995,265.0,2.3138115406036377,-0.006302043795585632,17.0,0.4849286675453186,0.07565656304359436,,,,,,,,,,,,,,,,,,,,,,,,,,,,,,,,,
38.662485,0.14747050404548645,-0.06179415062069893,47.720665,0.10175269539126941,0.0,-0.0769302174448967,0.9951947927474976,145.1264952,0.0,0.0,74.0,0.0,0.0,160.59,-0.016929693744344994,-0.8126275539398193,-430.0,0.007410083897411823,-37.6235591,6.157347068110796,47.760701999999995,265.0,2.313204050064087,-0.006590835750102997,17.0,0.4937455356121063,0.07566692680120468,,,,,,,,,,,,,,,,,,,,,,,,,,,,,,,,,
38.881575,0.14219844341278076,-0.06186462566256523,47.960677,0.10175269539126941,0.0,-0.07694711536169052,0.9951977133750916,145.12649539999998,0.0,0.0,74.0,0.0,0.0,160.6,-0.016057029118347832,-0.8126275539398193,-431.0,0.007040513213723898,-37.623559199999995,6.157347068110796,47.979791999999996,264.0,2.3137285709381104,-0.006227296311408281,17.0,0.4761117696762085,0.07560103386640549,,,,,,,,,,,,,,,,,,,,,,,,,,,,,,,,,
39.081539,0.13850201666355133,-0.06180986016988754,48.160844,0.10157816246606999,0.0,-0.076299749314785,0.9952026605606079,145.1264955,0.0,0.0,73.0,0.0,0.0,160.58,-0.016231562043547264,-0.8237594366073608,-431.0,0.004953242372721434,-37.6235594,6.157347068110796,48.179756,265.0,2.3119993209838867,-0.00630855793133378,17.0,0.4937455356121063,0.07557462155818939,,,,,,,,,,,,,,,,,,,,,,,,,,,,,,,,,
39.281464,0.1351788491010666,-0.06176767498254776,48.360696999999995,0.10157816246606999,0.0,-0.07660853117704391,0.9952050447463989,145.1264956,0.0,0.0,74.0,0.0,0.0,160.63,-0.0164060949687467,-0.8460232019424438,-429.0,0.003190991934388876,-37.6235595,6.157521601035995,48.379681,265.0,2.3099780082702637,-0.0063403816893696785,17.0,0.502562403678894,0.07557518780231476,,,,,,,,,,,,,,,,,,,,,,,,,,,,,,,,,
39.481488999999996,0.1326419860124588,-0.061654191464185715,48.561206,0.10157816246606999,0.0,-0.07677382975816727,0.9952120184898376,145.1264956,0.0,0.0,74.0,0.0,0.0,160.62,-0.016580627893946133,-0.8571550846099854,-426.0,0.0018495090771466494,-37.6235595,6.157696133961194,48.579705999999995,264.0,2.3061633110046387,-0.006462667137384415,17.0,0.5113793015480042,0.0755648985505104,,,,,,,,,,,,,,,,,,,,,,,,,,,,,,,,,
39.681584,0.1297493726015091,-0.06160234659910202,48.76124,0.10157816246606999,0.0,-0.07647699862718582,0.9952167272567749,145.1264957,0.0,0.0,74.0,0.0,0.0,160.63,-0.016580627893946133,-0.8571550846099854,-429.0,0.0014494819333776832,-37.6235595,6.157696133961194,48.779801,264.0,2.301281690597534,-0.006457328796386719,17.0,0.5113793015480042,0.07554703205823898,,,,,,,,,,,,,,,,,,,,,,,,,,,,,,,,,
39.881134,0.12490451335906982,-0.061501167714595795,48.961248,0.10157816246606999,0.0,-0.07733308523893356,0.9952242374420166,145.12649589999998,0.0,0.0,73.0,0.0,0.0,160.65,-0.016755160819145562,-0.8571550846099854,-431.0,-3.074354026466608e-06,-37.6235594,6.157870666886393,48.979351,266.0,2.2953197956085205,-0.006606061942875385,17.0,0.5201961994171143,0.07551730424165726,,,,,,,,,,,,,,,,,,,,,,,,,,,,,,,,,
40.081559999999996,0.12124171853065491,-0.06147829070687294,49.161071,0.10140362954087055,0.0,-0.07723334431648254,0.9952268004417419,145.126496,0.0,0.0,74.0,0.0,0.0,160.63,-0.016755160819145562,-0.8460232019424438,-428.0,-0.0018001619027927518,-37.6235595,6.158045199811593,49.179776999999994,265.0,2.2879068851470947,-0.006568621378391981,17.0,0.5378299355506897,0.07550553977489471,,,,,,,,,,,,,,,,,,,,,,,,,,,,,,,,,
40.281567,0.11930497735738754,-0.06138186529278755,49.360687999999996,0.10140362954087055,0.0,-0.07668567448854446,0.9952319860458374,145.1264961,0.0,0.0,74.0,0.0,0.0,160.65,-0.016929693744344994,-0.8571550846099854,-430.0,-0.001482672756537795,-37.6235595,6.158219732736793,49.379784,264.0,2.280585765838623,-0.0066657098941504955,17.0,0.5466468334197998,0.07550676167011261,,,,,,,,,,,,,,,,,,,,,,,,,,,,,,,,,
40.481517,0.11593053489923477,-0.06128779053688049,49.56116,0.10140362954087055,0.0,-0.0342753529548645,0.9952396750450134,145.1264961,0.0,0.0,72.0,0.0,0.0,160.66,-0.016929693744344994,-0.8547419905662537,-433.0,0.007626030128449202,-37.6235596,6.158394265661992,49.579733999999995,265.0,2.2725298404693604,-0.006683004088699818,17.0,0.5558959245681763,0.07547987997531891,,,,,,,,,,,,,,,,,,,,,,,,,,,,,,,,,
40.701636,0.11236852407455444,-0.06126200780272484,49.761136,0.10140362954087055,0.0,-0.03820876032114029,0.9952400326728821,145.1264962,0.0,0.0,74.0,0.0,0.0,160.67000000000002,-0.016929693744344994,-0.8605618476867676,-431.0,-0.0014453406911343336,-37.6235596,6.158394265661992,49.799853,264.0,2.262564182281494,-0.006672765593975782,17.0,0.5551031827926636,0.07549624890089035,,,,,,,,,,,,,,,,,,,,,,,,,,,,,,,,,
40.881495,0.10685268044471741,-0.061220768839120865,49.960646,0.10157816246606999,0.0,-0.04073277488350868,0.9952394366264343,145.1264962,0.0,0.0,73.0,0.0,0.0,160.65,-0.016755160819145562,-0.8676204681396484,-426.0,0.0001072398736141622,-37.6235597,6.158568798587192,49.979712,265.0,2.2495908737182617,-0.006594435777515173,17.0,0.5561012029647827,0.07554551213979721,,,,,,,,,,,,,,,,,,,,,,,,,,,,,,,,,
41.081590999999996,0.10447020083665848,-0.0611494705080986,50.161213,0.10175269539126941,0.0,-0.04380938038229942,0.995238184928894,145.1264962,0.0,0.0,72.0,0.0,0.0,160.65,-0.016929693744344994,-0.8754618167877197,-434.0,0.0014509690226987004,-37.623559799999995,6.158568798587192,50.179807999999994,266.0,2.2390403747558594,-0.006667552515864372,17.0,0.558377206325531,0.07561363279819489,,,,,,,,,,,,,,,,,,,,,,,,,,,,,,,,,
41.262007,0.1030547171831131,-0.06110169738531113,50.320079,0.10175269539126941,0.0,-0.048058778047561646,0.9952384829521179,145.1264962,0.0,0.0,72.0,0.0,0.0,160.65,-0.016929693744344994,-0.8839921951293945,-434.0,-0.0012053399113938212,-37.6235599,6.158743331512391,50.360223999999995,265.0,2.2360644340515137,-0.006682592909783125,17.0,0.5583905577659607,0.07564537972211838,,,,,,,,,,,,,,,,,,,,,,,,,,,,,,,,,
41.481442,0.10470118373632431,-0.06090950965881348,50.561192,0.10192722831646885,0.0,-0.0522325336933136,0.9952443838119507,145.12649639999998,0.0,0.0,71.0,0.0,0.0,160.66,-0.016929693744344994,-0.8967594504356384,-438.0,-0.003178682876750827,-37.62356,6.159092397362789,50.579659,265.0,2.237802505493164,-0.006701797712594271,17.0,0.558222770690918,0.07572133094072342,,,,,,,,,,,,,,,,,,,,,,,,,,,,,,,,,
41.681396,0.10413657128810883,-0.060761645436286926,50.761393,0.10192722831646885,0.0,-0.054685529321432114,0.9952501654624939,145.1264966,0.0,0.0,72.0,0.0,0.0,160.66,-0.016929693744344994,-0.9070649743080139,-430.0,0.003457579528912902,-37.62356,6.159441463213189,50.779613,267.0,2.2409443855285645,-0.006680456921458244,17.0,0.5650489926338196,0.07576705515384674,,,,,,,,,,,,,,,,,,,,,,,,,,,,,,,,,
41.881101,0.10813691467046738,-0.06054281070828438,50.961138,0.10210176124166828,0.0,-0.05519181489944458,0.9952608346939087,145.1264966,0.0,0.0,72.0,0.0,0.0,160.70000000000002,-0.016929693744344994,-0.914738655090332,-433.0,0.006241773720830679,-37.6235599,6.159790529063588,50.979318,265.0,2.247521162033081,-0.006740102078765631,17.0,0.5728077292442322,0.07579636573791504,,,,,,,,,,,,,,,,,,,,,,,,,,,,,,,,,
42.081105,0.1097404882311821,-0.06031671166419983,51.161372,0.10210176124166828,0.0,-0.05146828293800354,0.9952731728553772,145.1264965,0.0,0.0,73.0,0.0,0.0,160.71,-0.01710422666954443,-0.9157739281654358,-430.0,-0.00022946365061216056,-37.6235599,6.160314127839185,51.179322,266.0,2.252599000930786,-0.006811060477048159,17.0,0.5742310881614685,0.07580923289060593,,,,,,,,,,,,,,,,,,,,,,,,,,,,,,,,,
42.281191,0.1122872456908226,-0.060092903673648834,51.360766999999996,0.10210176124166828,0.0,-0.052841782569885254,0.9952865839004517,145.12649639999998,0.0,0.0,72.0,0.0,0.0,160.69,-0.017278759594743863,-0.919713020324707,-434.0,-0.007261059712618589,-37.6235599,6.160663193689585,51.379408,266.0,2.2613208293914795,-0.006932761054486036,17.0,0.5714097023010254,0.07579927146434784,,,,,,,,,,,,,,,,,,,,,,,,,,,,,,,,,
42.462035,0.11326166987419128,-0.05995094031095505,51.52023,0.10210176124166828,0.0,-0.05472778528928757,0.9952946305274963,145.12649639999998,0.0,0.0,72.0,0.0,0.0,160.63,-0.017278759594743863,-0.9225971698760986,-433.0,-0.008636117912828922,-37.6235599,6.161012259539984,51.560252,266.0,2.2675299644470215,-0.006938427221029997,17.0,0.5701568126678467,0.07580558955669403,,,,,,,,,,,,,,,,,,,,,,,,,,,,,,,,,
42.662093999999996,0.11655686050653458,-0.05981073155999184,51.720648999999995,0.10210176124166828,0.0,-0.055861733853816986,0.9952988624572754,145.12649639999998,0.0,0.0,74.0,0.0,0.0,160.6,-0.017453292519943295,-0.9260079264640808,-433.0,-0.010899943299591541,-37.62356,6.161361325390382,51.760310999999994,265.0,2.2781624794006348,-0.007054551970213652,17.0,0.568011462688446,0.07584886252880096,,,,,,,,,,,,,,,,,,,,,,,,,,,,,,,,,
42.881104,0.12145774811506271,-0.05967484414577484,51.960767,0.10210176124166828,0.0,-0.058852456510066986,0.995309591293335,145.12649639999998,0.0,0.0,72.0,0.0,0.0,160.58,-0.01710422666954443,-0.9310163855552673,-435.0,-0.012048480100929737,-37.62356,6.161535858315582,51.979321,266.0,2.2968878746032715,-0.006837055552750826,17.0,0.5686718821525574,0.07583591341972351,,,,,,,,,,,,,,,,,,,,,,,,,,,,,,,,,
43.081431,0.12501515448093414,-0.05948425829410553,52.160768999999995,0.10227629416686772,0.0,-0.0630233958363533,0.9953165650367737,145.12649639999998,0.0,0.0,73.0,0.0,0.0,160.49,-0.017453292519943295,-0.9373635053634644,-431.0,-0.012467208318412304,-37.6235602,6.161884924165981,52.179648,266.0,2.312736749649048,-0.007067755796015263,17.0,0.5692009329795837,0.07587229460477829,,,,,,,,,,,,,,,,,,,,,,,,,,,,,,,,,
43.28155,0.1296505630016327,-0.05940079316496849,52.360744,0.10227629416686772,0.0,-0.06715428829193115,0.9953218698501587,145.12649629999999,0.0,0.0,72.0,0.0,0.0,160.43,-0.01710422666954443,-0.9458767771720886,-434.0,-0.01029691006988287,-37.6235602,6.16205945709118,52.379767,265.0,2.3347439765930176,-0.006882127840071917,17.0,0.5699835419654846,0.07588477432727814,,,,,,,,,,,,,,,,,,,,,,,,,,,,,,,,,
43.48147,0.13478052616119385,-0.05928019434213638,52.561101,0.10227629416686772,0.0,-0.07036042958498001,0.9953275918960571,145.1264962,0.0,0.0,72.0,0.0,0.0,160.4,-0.017453292519943295,-0.9541516304016113,-437.0,-0.012141921557486057,-37.6235603,6.162408522941578,52.579687,265.0,2.3568644523620605,-0.0070349834859371185,17.0,0.5678772330284119,0.07589059323072433,,,,,,,,,,,,,,,,,,,,,,,,,,,,,,,,,
43.681523999999996,0.13781090080738068,-0.05915238708257675,52.761122,0.10227629416686772,0.0,-0.07421427965164185,0.995333731174469,145.1264962,0.0,0.0,73.0,0.0,0.0,160.38,-0.017453292519943295,-0.9622070789337158,-431.0,-0.010161332786083221,-37.6235603,6.1625830558667785,52.779740999999994,264.0,2.3776936531066895,-0.007087414152920246,17.0,0.5686764717102051,0.075904481112957,,,,,,,,,,,,,,,,,,,,,,,,,,,,,,,,,
43.881503,0.14276359975337982,-0.05894138664007187,52.960511,0.10227629416686772,0.0,-0.07519416511058807,0.9953464269638062,145.1264962,0.0,0.0,75.0,0.0,0.0,160.36,-0.01780235837034216,-0.9697789549827576,-434.0,-0.005973924417048693,-37.6235603,6.162932121717177,52.97972,262.0,2.39997935295105,-0.00724094919860363,17.0,0.5716193914413452,0.0758887529373169,,,,,,,,,,,,,,,,,,,,,,,,,,,,,,,,,
44.062106,0.14413219690322876,-0.05892558768391609,53.120664,0.10210176124166828,0.0,-0.0749666839838028,0.9953557848930359,145.126496,0.0,0.0,75.0,0.0,0.0,160.35,-0.016929693744344994,-0.9732580780982971,-430.0,-0.004779697861522436,-37.6235602,6.163106654642377,53.160323,264.0,2.4177632331848145,-0.006866189185529947,17.0,0.5720618367195129,0.07581277191638947,,,,,,,,,,,,,,,,,,,,,,,,,,,,,,,,,
44.281572,0.148058220744133,-0.05883766710758209,53.360743,0.10192722831646885,0.0,-0.07393988221883774,0.9953694343566895,145.126496,0.0,0.0,73.0,0.0,0.0,160.34,-0.016929693744344994,-0.9780217409133911,-431.0,-0.009814651682972908,-37.6235602,6.163281187567576,53.379788999999995,264.0,2.4418437480926514,-0.006841138005256653,17.0,0.5691528916358948,0.07570356130599976,,,,,,,,,,,,,,,,,,,,,,,,,,,,,,,,,
44.481529,0.1477295458316803,-0.05880792811512947,53.561206,0.10175269539126941,0.0,-0.0732843354344368,0.9953759908676147,145.126496,0.0,0.0,72.0,0.0,0.0,160.34,-0.016929693744344994,-0.9817699790000916,-434.0,-0.009900988079607487,-37.6235603,6.163281187567576,53.579746,262.0,2.456547498703003,-0.006878549698740244,17.0,0.567332923412323,0.07563773542642593,,,,,,,,,,,,,,,,,,,,,,,,,,,,,,,,,
44.681522,0.1460886001586914,-0.058694664388895035,53.761322,0.10175269539126941,0.0,-0.07505057007074356,0.9953821897506714,145.126496,0.0,0.0,74.0,0.0,0.0,160.34,-0.017278759594743863,-0.9879107475280762,-431.0,-0.008090279065072536,-37.6235603,6.163630253417975,53.779739,264.0,2.4662516117095947,-0.007006831932812929,17.0,0.5649572610855103,0.07563182711601257,,,,,,,,,,,,,,,,,,,,,,,,,,,,,,,,,
44.881465999999996,0.14183707535266876,-0.05865388736128807,53.960421999999994,0.10175269539126941,0.0,-0.0737004354596138,0.9953886270523071,145.126496,0.0,0.0,72.0,0.0,0.0,160.37,-0.016929693744344994,-0.9899265766143799,-429.0,-0.0069933426566421986,-37.6235602,6.163630253417975,53.979682999999994,265.0,2.4727120399475098,-0.006861665286123753,17.0,0.5645572543144226,0.07559216022491455,,,,,,,,,,,,,,,,,,,,,,,,,,,,,,,,,
45.101548,0.13839396834373474,-0.05862991511821747,54.161114999999995,0.10157816246606999,0.0,-0.06956709921360016,0.9953997731208801,145.12649589999998,0.0,0.0,75.0,0.0,0.0,160.36,-0.0164060949687467,-0.9892615079879761,-429.0,-0.004828395321965218,-37.6235602,6.163804786343174,54.199765,262.0,2.474622964859009,-0.0065986523404717445,17.0,0.5657521486282349,0.07548728585243225,,,,,,,,,,,,,,,,,,,,,,,,,,,,,,,,,
45.281437,0.1333152949810028,-0.05858762189745903,54.360875,0.10122909661567112,0.0,-0.0660010278224945,0.9954106211662292,145.1264958,0.0,0.0,73.0,0.0,0.0,160.36,-0.0164060949687467,-0.9869986176490784,-427.0,-0.007389446254819632,-37.6235601,6.163804786343174,54.379653999999995,265.0,2.472782611846924,-0.006670148111879826,17.0,0.5590639114379883,0.07537027448415756,,,,,,,,,,,,,,,,,,,,,,,,,,,,,,,,,
45.462028,0.1309289187192917,-0.05863767862319946,54.520243,0.10105456369047168,0.0,-0.06277251243591309,0.995418906211853,145.1264957,0.0,0.0,73.0,0.0,0.0,160.35,-0.016057029118347832,-0.984516441822052,-435.0,-0.010496417991816998,-37.6235601,6.163804786343174,54.560244999999995,263.0,2.471653938293457,-0.006481817923486233,17.0,0.552757203578949,0.07523803412914276,,,,,,,,,,,,,,,,,,,,,,,,,,,,,,,,,
45.68153,0.1287023276090622,-0.05855197086930275,54.761316,0.10070549784007282,0.0,-0.058231037110090256,0.995429277420044,145.1264958,0.0,0.0,74.0,0.0,0.0,160.37,-0.016929693744344994,-0.9800927639007568,-432.0,-0.014765691012144089,-37.62356,6.163804786343174,54.779747,264.0,2.470453977584839,-0.006882650312036276,17.0,0.5452674627304077,0.07513262331485748,,,,,,,,,,,,,,,,,,,,,,,,,,,,,,,,,
45.881465,0.12515650689601898,-0.05846730247139931,54.960604,0.10053096491487337,0.0,-0.05414695665240288,0.9954418540000916,145.1264957,0.0,0.0,74.0,0.0,0.0,160.36,-0.016755160819145562,-0.9752699732780457,-429.0,-0.013952555134892464,-37.62356,6.164153852193573,54.979682,263.0,2.4682929515838623,-0.006803795229643583,17.0,0.5426953434944153,0.07503924518823624,,,,,,,,,,,,,,,,,,,,,,,,,,,,,,,,,
46.081432,0.12230140715837479,-0.05845564976334572,55.161173,0.10053096491487337,0.0,-0.05158379301428795,0.9954466819763184,145.1264956,0.0,0.0,76.0,0.0,0.0,160.37,-0.016580627893946133,-0.9712074995040894,-430.0,-0.015353529714047909,-37.6235599,6.164153852193573,55.179649,263.0,2.465397357940674,-0.006734775844961405,17.0,0.5388007760047913,0.07499057054519653,,,,,,,,,,,,,,,,,,,,,,,,,,,,,,,,,
46.301571,0.1185731589794159,-0.05841459706425667,55.361036999999996,0.10035643198967395,0.0,-0.04762449115514755,0.9954527616500854,145.1264956,0.0,0.0,73.0,0.0,0.0,160.39000000000001,-0.016929693744344994,-0.9646276235580444,-431.0,-0.01826716586947441,-37.6235599,6.164153852193573,55.399788,263.0,2.4617576599121094,-0.006891393568366766,17.0,0.5321144461631775,0.07492700964212418,,,,,,,,,,,,,,,,,,,,,,,,,,,,,,,,,
46.481481,0.11591849476099014,-0.05842300131917,55.561273,0.10018189906447451,0.0,-0.044327955693006516,0.9954574704170227,145.1264956,0.0,0.0,74.0,0.0,0.0,160.4,-0.016929693744344994,-0.9609227776527405,-432.0,-0.018448172137141228,-37.6235599,6.164153852193573,55.579698,263.0,2.4602315425872803,-0.006947510410100222,17.0,0.5284468531608582,0.07485327124595642,,,,,,,,,,,,,,,,,,,,,,,,,,,,,,,,,
46.68157,0.11377964913845062,-0.058374155312776566,55.761277,0.10018189906447451,0.0,-0.04205543175339699,0.9954630732536316,145.1264955,0.0,0.0,74.0,0.0,0.0,160.4,-0.016929693744344994,-0.9559919834136963,-429.0,-0.018885590136051178,-37.6235599,6.164328385118773,55.779787,263.0,2.4574599266052246,-0.00698592234402895,17.0,0.5235630869865417,0.07481212913990021,,,,,,,,,,,,,,,,,,,,,,,,,,,,,,,,,
46.862047,0.1125435084104538,-0.058310870081186295,55.920199999999994,0.10000736613927509,0.0,-0.04203057289123535,0.9954705834388733,145.1264955,0.0,0.0,73.0,0.0,0.0,160.41,-0.016755160819145562,-0.9539531469345093,-429.0,-0.01931641437113285,-37.623559799999995,6.164328385118773,55.960263999999995,265.0,2.4555675983428955,-0.006886737886816263,17.0,0.5211891531944275,0.07477249950170517,,,,,,,,,,,,,,,,,,,,,,,,,,,,,,,,,
47.101586,0.11232903599739075,-0.05817980319261551,56.160819999999994,0.10000736613927509,0.0,-0.04009076580405235,0.9954801797866821,145.12649539999998,0.0,0.0,74.0,0.0,0.0,160.4,-0.016755160819145562,-0.9493316411972046,-431.0,-0.01969859004020691,-37.6235599,6.164677450969171,56.199802999999996,263.0,2.457942008972168,-0.00686037540435791,17.0,0.5148154497146606,0.07474891096353531,,,,,,,,,,,,,,,,,,,,,,,,,,,,,,,,,
47.281484999999996,0.11010684072971344,-0.058090005069971085,56.360605,0.10000736613927509,0.0,-0.0423707589507103,0.9954844117164612,145.1264955,0.0,0.0,74.0,0.0,0.0,160.41,-0.016580627893946133,-0.9508132934570312,-431.0,-0.01933598332107067,-37.6235599,6.164851983894371,56.379701999999995,262.0,2.454965114593506,-0.006822490133345127,17.0,0.5134700536727905,0.07476505637168884,,,,,,,,,,,,,,,,,,,,,,,,,,,,,,,,,
47.481589,0.10724173486232758,-0.05806295573711395,56.561206,0.10018189906447451,0.0,-0.04247844219207764,0.9954828023910522,145.12649539999998,0.0,0.0,73.0,0.0,0.0,160.39000000000001,-0.016580627893946133,-0.9509773254394531,-434.0,-0.016769876703619957,-37.623559799999995,6.164851983894371,56.579806,265.0,2.4528138637542725,-0.006825301796197891,17.0,0.511471688747406,0.07480696588754654,,,,,,,,,,,,,,,,,,,,,,,,,,,,,,,,,
47.681562,0.1050388365983963,-0.05810277909040451,56.761216,0.10000736613927509,0.0,-0.03972063586115837,0.9954889416694641,145.1264953,0.0,0.0,73.0,0.0,0.0,160.37,-0.016231562043547264,-0.9463251829147339,-429.0,-0.016911529004573822,-37.6235597,6.164851983894371,56.779779,264.0,2.453789710998535,-0.0065817274153232574,17.0,0.5102817416191101,0.07471740245819092,,,,,,,,,,,,,,,,,,,,,,,,,,,,,,,,,
47.881448,0.10403081029653549,-0.05804012343287468,56.960840999999995,0.09983283321407564,0.0,-0.03469507396221161,0.9954949617385864,145.126495,0.0,0.0,73.0,0.0,0.0,160.42000000000002,-0.0164060949687467,-0.9378128051757812,-430.0,-0.017465706914663315,-37.6235596,6.16502651681957,56.979665,264.0,2.4536995887756348,-0.006748438812792301,17.0,0.5069614052772522,0.07467004656791687,,,,,,,,,,,,,,,,,,,,,,,,,,,,,,,,,
48.08151,0.10441449284553528,-0.05806756392121315,57.160686999999996,0.09965830028887622,0.0,-0.03352389112114906,0.995501697063446,145.1264948,0.0,0.0,72.0,0.0,0.0,160.42000000000002,-0.016057029118347832,-0.9322173595428467,-434.0,-0.021989360451698303,-37.6235596,6.16502651681957,57.179727,264.0,2.458895444869995,-0.0065318685956299305,17.0,0.49721020460128784,0.07457789778709412,,,,,,,,,,,,,,,,,,,,,,,,,,,,,,,,,
48.281088,0.1060822457075119,-0.05800197646021843,57.360772,0.09965830028887622,0.0,-0.032168909907341,0.99550461769104,145.1264946,0.0,0.0,73.0,0.0,0.0,160.43,-0.0164060949687467,-0.9289187788963318,-434.0,-0.02482539974153042,-37.6235595,6.16502651681957,57.379304999999995,264.0,2.464219093322754,-0.006689201574772596,17.0,0.48599404096603394,0.07457605004310608,,,,,,,,,,,,,,,,,,,,,,,,,,,,,,,,,
48.481468,0.10794034600257874,-0.05796116590499878,57.561167,0.09965830028887622,0.0,-0.030175330117344856,0.995509684085846,145.1264946,0.0,0.0,73.0,0.0,0.0,160.41,-0.016057029118347832,-0.9228869080543518,-429.0,-0.02854914776980877,-37.6235595,6.16520104974477,57.579685,263.0,2.4719977378845215,-0.006545285694301128,17.0,0.4729865789413452,0.07455417513847351,,,,,,,,,,,,,,,,,,,,,,,,,,,,,,,,,
48.681506,0.10893240571022034,-0.057850614190101624,57.76106,0.09965830028887622,0.0,-0.03200438991189003,0.9955126047134399,145.1264946,0.0,0.0,72.0,0.0,0.0,160.4,-0.0164060949687467,-0.920703649520874,-432.0,-0.030256522819399834,-37.6235595,6.165375582669969,57.779723,266.0,2.47977876663208,-0.006742424797266722,17.0,0.4657231271266937,0.07458330690860748,,,,,,,,,,,,,,,,,,,,,,,,,,,,,,,,,
48.881544,0.11024828255176544,-0.05779442936182022,57.960789999999996,0.09983283321407564,0.0,-0.030706241726875305,0.995513916015625,145.1264945,0.0,0.0,73.0,0.0,0.0,160.4,-0.0164060949687467,-0.9167864322662354,-430.0,-0.030720414593815804,-37.6235594,6.165550115595169,57.979760999999996,262.0,2.4879088401794434,-0.006722117308527231,17.0,0.45971745252609253,0.0746106281876564,,,,,,,,,,,,,,,,,,,,,,,,,,,,,,,,,
49.101846,0.11201377213001251,-0.05772600695490837,58.160802999999994,0.09983283321407564,0.0,-0.030714184045791626,0.9955167174339294,145.12649439999998,0.0,0.0,73.0,0.0,0.0,160.41,-0.016580627893946133,-0.9122598767280579,-430.0,-0.03541222959756851,-37.6235594,6.165550115595169,58.200063,262.0,2.4967525005340576,-0.006810690276324749,17.0,0.4483509957790375,0.07461784780025482,,,,,,,,,,,,,,,,,,,,,,,,,,,,,,,,,
49.281473,0.11430541425943375,-0.05765337124466896,58.360374,0.09965830028887622,0.0,-0.03141629695892334,0.9955215454101562,145.1264943,0.0,0.0,75.0,0.0,0.0,160.4,-0.016755160819145562,-0.9090996384620667,-430.0,-0.0395062156021595,-37.6235594,6.165724648520368,58.37969,264.0,2.5073139667510986,-0.006879746913909912,17.0,0.43573734164237976,0.07460399717092514,,,,,,,,,,,,,,,,,,,,,,,,,,,,,,,,,
49.481482,0.11728835850954056,-0.05760081857442856,58.561163,0.09983283321407564,0.0,-0.031329840421676636,0.9955227971076965,145.12649439999998,0.0,0.0,75.0,0.0,0.0,160.4,-0.016755160819145562,-0.9054595828056335,-427.0,-0.03854561969637871,-37.6235593,6.165899181445568,58.579699,262.0,2.5190258026123047,-0.006964670028537512,17.0,0.4284392297267914,0.07461968064308167,,,,,,,,,,,,,,,,,,,,,,,,,,,,,,,,,
49.681491,0.118525929749012,-0.05756281688809395,58.761115,0.09983283321407564,0.0,-0.03224663436412811,0.9955238699913025,145.12649439999998,0.0,0.0,73.0,0.0,0.0,160.4,-0.016755160819145562,-0.9023867249488831,-432.0,-0.036606647074222565,-37.6235593,6.165899181445568,58.779708,263.0,2.5273399353027344,-0.0069482759572565556,17.0,0.42578473687171936,0.07463690638542175,,,,,,,,,,,,,,,,,,,,,,,,,,,,,,,,,
49.881535,0.12103217095136642,-0.0575287789106369,58.960713,0.09983283321407564,0.0,-0.032680004835128784,0.9955257773399353,145.1264943,0.0,0.0,73.0,0.0,0.0,160.41,-0.016580627893946133,-0.9008938670158386,-429.0,-0.034254007041454315,-37.623559199999995,6.165899181445568,58.979752,262.0,2.534555196762085,-0.006817398127168417,17.0,0.4211730659008026,0.0746481716632843,,,,,,,,,,,,,,,,,,,,,,,,,,,,,,,,,
50.081464,0.12180162221193314,-0.05747799947857857,59.160850999999994,0.09983283321407564,0.0,-0.03446898236870766,0.9955281615257263,145.1264942,0.0,0.0,73.0,0.0,0.0,160.4,-0.016580627893946133,-0.8988978266716003,-432.0,-0.03237340599298477,-37.623559199999995,6.166073714370767,59.179680999999995,262.0,2.5405123233795166,-0.006808629725128412,17.0,0.4186398684978485,0.07465718686580658,,,,,,,,,,,,,,,,,,,,,,,,,,,,,,,,,
50.281454,0.12323430925607681,-0.05746287852525711,59.36069,0.10000736613927509,0.0,-0.036976177245378494,0.9955250024795532,145.1264941,0.0,0.0,74.0,0.0,0.0,160.39000000000001,-0.0164060949687467,-0.8985349535942078,-430.0,-0.03035844676196575,-37.623559199999995,6.166073714370767,59.379670999999995,264.0,2.547994613647461,-0.006750119384378195,17.0,0.41510653495788574,0.0747159942984581,,,,,,,,,,,,,,,,,,,,,,,,,,,,,,,,,
50.481491999999996,0.12439395487308502,-0.057405874133110046,59.561101,0.10000736613927509,0.0,-0.03733266890048981,0.9955253005027771,145.1264941,0.0,0.0,74.0,0.0,0.0,160.42000000000002,-0.016580627893946133,-0.8964807391166687,-429.0,-0.02927740290760994,-37.6235591,6.166248247295966,59.579708999999994,263.0,2.5570714473724365,-0.006827542092651129,17.0,0.4119279384613037,0.07474840432405472,,,,,,,,,,,,,,,,,,,,,,,,,,,,,,,,,
50.701741999999996,0.12645508348941803,-0.057390980422496796,59.761246,0.10000736613927509,0.0,-0.03831149637699127,0.9955270290374756,145.1264941,0.0,0.0,73.0,0.0,0.0,160.41,-0.016231562043547264,-0.8939638137817383,-430.0,-0.027346985414624214,-37.6235591,6.166248247295966,59.799958999999994,263.0,2.564121961593628,-0.006696281023323536,17.0,0.40878820419311523,0.07474890351295471,,,,,,,,,,,,,,,,,,,,,,,,,,,,,,,,,
50.881451999999996,0.12634074687957764,-0.057368531823158264,59.960834,0.10000736613927509,0.0,-0.04104568064212799,0.9955277442932129,145.1264941,0.0,0.0,73.0,0.0,0.0,160.41,-0.016231562043547264,-0.8944810032844543,-428.0,-0.026401206851005554,-37.6235591,6.166248247295966,59.979668999999994,264.0,2.568042516708374,-0.0066642435267567635,17.0,0.4057058095932007,0.0747603327035904,,,,,,,,,,,,,,,,,,,,,,,,,,,,,,,,,
51.081576999999996,0.12685908377170563,-0.057353146374225616,60.160785,0.10018189906447451,0.0,-0.04398726671934128,0.9955252408981323,145.1264941,0.0,0.0,74.0,0.0,0.0,160.41,-0.016231562043547264,-0.8947239518165588,-430.0,-0.024591468274593353,-37.6235591,6.166422780221166,60.179793999999994,265.0,2.570822238922119,-0.006660448852926493,17.0,0.40505802631378174,0.07480529695749283,,,,,,,,,,,,,,,,,,,,,,,,,,,,,,,,,
51.281462,0.12632915377616882,-0.05734783038496971,60.360386,0.10018189906447451,0.0,-0.04583972692489624,0.9955265522003174,145.1264941,0.0,0.0,73.0,0.0,0.0,160.44,-0.016057029118347832,-0.8947706818580627,-435.0,-0.021835781633853912,-37.6235591,6.166422780221166,60.379678999999996,264.0,2.577132225036621,-0.006563595961779356,17.0,0.40324273705482483,0.07480061054229736,,,,,,,,,,,,,,,,,,,,,,,,,,,,,,,,,
51.481578,0.12413757294416428,-0.05732285603880882,60.561178,0.10018189906447451,0.0,-0.04673748463392258,0.9955267906188965,145.1264941,0.0,0.0,73.0,0.0,0.0,160.44,-0.0158824961931484,-0.8930978775024414,-432.0,-0.018418554216623306,-37.623559,6.166422780221166,60.579795,263.0,2.5793068408966064,-0.006506051402539015,17.0,0.4031825363636017,0.07482145726680756,,,,,,,,,,,,,,,,,,,,,,,,,,,,,,,,,
51.68145,0.12190839648246765,-0.057280126959085464,60.761295999999994,0.10018189906447451,0.0,-0.04589272290468216,0.9955320358276367,145.12649399999998,0.0,0.0,73.0,0.0,0.0,160.44,-0.0158824961931484,-0.8884505033493042,-426.0,-0.015336927957832813,-37.6235589,6.166597313146365,60.779666999999996,264.0,2.576904535293579,-0.006478653755038977,17.0,0.4031687080860138,0.07478678971529007,,,,,,,,,,,,,,,,,,,,,,,,,,,,,,,,,
51.88147,0.12144768983125687,-0.0571802519261837,60.960656,0.10018189906447451,0.0,-0.04480496793985367,0.9955384731292725,145.12649389999999,0.0,0.0,74.0,0.0,0.0,160.43,-0.0158824961931484,-0.8828914165496826,-426.0,-0.014856312423944473,-37.6235588,6.166771846071565,60.979687,264.0,2.576678514480591,-0.006557699292898178,17.0,0.398508757352829,0.07477116584777832,,,,,,,,,,,,,,,,,,,,,,,,,,,,,,,,,
52.081537,0.12109605967998505,-0.05712979659438133,61.160692,0.10018189906447451,0.0,-0.04453970864415169,0.9955407381057739,145.1264938,0.0,0.0,74.0,0.0,0.0,160.44,-0.016057029118347832,-0.8791078925132751,-428.0,-0.013405592180788517,-37.6235588,6.166771846071565,61.179753999999996,263.0,2.5767147541046143,-0.00656629865989089,17.0,0.39596471190452576,0.07477747648954391,,,,,,,,,,,,,,,,,,,,,,,,,,,,,,,,,
52.261975,0.12025672197341919,-0.05710434913635254,61.320221,0.10000736613927509,0.0,-0.04334273934364319,0.995543360710144,145.1264937,0.0,0.0,73.0,0.0,0.0,160.45000000000002,-0.016057029118347832,-0.873464822769165,-430.0,-0.015972334891557693,-37.6235587,6.166946378996765,61.360192,265.0,2.5759613513946533,-0.006576548796147108,17.0,0.3897640109062195,0.07476238906383514,,,,,,,,,,,,,,,,,,,,,,,,,,,,,,,,,
52.481153,0.11847177147865295,-0.057103123515844345,61.561313,0.10000736613927509,0.0,-0.04106450080871582,0.9955479502677917,145.1264936,0.0,0.0,72.0,0.0,0.0,160.44,-0.0158824961931484,-0.8646852374076843,-435.0,-0.016481995582580566,-37.623558599999996,6.166946378996765,61.57937,266.0,2.5772125720977783,-0.006556299049407244,17.0,0.3812783360481262,0.07470373064279556,,,,,,,,,,,,,,,,,,,,,,,,,,,,,,,,,
52.681492999999996,0.11920031905174255,-0.05705048143863678,61.761115999999994,0.10000736613927509,0.0,-0.03958863765001297,0.9955534338951111,145.1264936,0.0,0.0,74.0,0.0,0.0,160.42000000000002,-0.0158824961931484,-0.8575322031974792,-431.0,-0.017503229901194572,-37.6235587,6.166946378996765,61.779709999999994,265.0,2.5803229808807373,-0.006500317249447107,17.0,0.37393128871917725,0.0746745690703392,,,,,,,,,,,,,,,,,,,,,,,,,,,,,,,,,
52.881482999999996,0.12026798725128174,-0.05694761127233505,61.960643,0.10000736613927509,0.0,-0.04054113104939461,0.9955583810806274,145.12649349999998,0.0,0.0,73.0,0.0,0.0,160.41,-0.0158824961931484,-0.8536350131034851,-430.0,-0.018732352182269096,-37.6235587,6.167120911921963,61.979699999999994,265.0,2.5851123332977295,-0.006500360555946827,17.0,0.3664282560348511,0.0746878832578659,,,,,,,,,,,,,,,,,,,,,,,,,,,,,,,,,
53.081468,0.12261853367090225,-0.05688122659921646,62.161113,0.10000736613927509,0.0,-0.041949886828660965,0.9955602288246155,145.1264936,0.0,0.0,73.0,0.0,0.0,160.4,-0.015707963267948967,-0.8519173860549927,-431.0,-0.017758730798959732,-37.6235587,6.167295444847163,62.179685,264.0,2.589826822280884,-0.006463427096605301,17.0,0.3617574870586395,0.07471724599599838,,,,,,,,,,,,,,,,,,,,,,,,,,,,,,,,,
53.262024,0.12181568890810013,-0.056807588785886765,62.32009,0.10000736613927509,0.0,-0.04297039285302162,0.9955641031265259,145.12649349999998,0.0,0.0,72.0,0.0,0.0,160.39000000000001,-0.0158824961931484,-0.84926438331604,-434.0,-0.01658216118812561,-37.623558599999996,6.167469977772362,62.360240999999995,264.0,2.592156410217285,-0.006503082346171141,17.0,0.35879772901535034,0.07471752911806107,,,,,,,,,,,,,,,,,,,,,,,,,,,,,,,,,
53.481159,0.12196183204650879,-0.05671362951397896,62.561299,0.10000736613927509,0.0,-0.043025657534599304,0.9955670237541199,145.1264936,0.0,0.0,72.0,0.0,0.0,160.39000000000001,-0.0158824961931484,-0.8450660109519958,-438.0,-0.01692866161465645,-37.623558599999996,6.167644510697562,62.579375999999996,265.0,2.5979433059692383,-0.0065268902108073235,17.0,0.35395902395248413,0.07474879175424576,,,,,,,,,,,,,,,,,,,,,,,,,,,,,,,,,
53.681395,0.12293309718370438,-0.05665760487318039,62.761244999999995,0.10000736613927509,0.0,-0.04238012433052063,0.995570957660675,145.1264936,0.0,0.0,74.0,0.0,0.0,160.38,-0.015707963267948967,-0.8399580717086792,-433.0,-0.014972314238548279,-37.623558599999996,6.167819043622761,62.779612,265.0,2.6011903285980225,-0.006497581955045462,17.0,0.35115545988082886,0.07474131882190704,,,,,,,,,,,,,,,,,,,,,,,,,,,,,,,,,
53.881454999999995,0.1227225512266159,-0.05659203231334686,62.960378,0.10000736613927509,0.0,-0.04408036917448044,0.9955768585205078,145.1264936,0.0,0.0,75.0,0.0,0.0,160.37,-0.015707963267948967,-0.8360333442687988,-426.0,-0.01492734532803297,-37.6235587,6.167993576547961,62.979671999999994,262.0,2.606671094894409,-0.006453701760619879,17.0,0.345912903547287,0.07471631467342377,,,,,,,,,,,,,,,,,,,,,,,,,,,,,,,,,
54.081497999999996,0.12351562827825546,-0.05649350956082344,63.161026,0.10000736613927509,0.0,-0.0462336391210556,0.9955811500549316,145.1264937,0.0,0.0,73.0,0.0,0.0,160.36,-0.015707963267948967,-0.8352651000022888,-431.0,-0.014909042976796627,-37.6235587,6.168168109473161,63.179714999999995,263.0,2.6116652488708496,-0.006448355969041586,17.0,0.34262019395828247,0.0747339278459549,,,,,,,,,,,,,,,,,,,,,,,,,,,,,,,,,
54.30159,0.12467939406633377,-0.05646318569779396,63.360701,0.10018189906447451,0.0,-0.048033859580755234,0.99558025598526,145.1264937,0.0,0.0,74.0,0.0,0.0,160.35,-0.015707963267948967,-0.8340470790863037,-428.0,-0.012832505628466606,-37.6235587,6.168168109473161,63.399806999999996,263.0,2.618743658065796,-0.006458555348217487,17.0,0.3405238389968872,0.07476740330457687,,,,,,,,,,,,,,,,,,,,,,,,,,,,,,,,,
54.481460999999996,0.12565037608146667,-0.056424032896757126,63.561265,0.10018189906447451,0.0,-0.04800393432378769,0.9955830574035645,145.1264938,0.0,0.0,73.0,0.0,0.0,160.35,-0.015707963267948967,-0.8311851620674133,-428.0,-0.010995952412486076,-37.6235587,6.168342642398359,63.579677999999994,263.0,2.6247472763061523,-0.006457499228417873,17.0,0.34163057804107666,0.07475991547107697,,,,,,,,,,,,,,,,,,,,,,,,,,,,,,,,,
54.681481999999995,0.12449749559164047,-0.056427184492349625,63.761108,0.10018189906447451,0.0,-0.04972120374441147,0.9955812692642212,145.12649389999999,0.0,0.0,74.0,0.0,0.0,160.36,-0.015533430342749533,-0.8300597071647644,-427.0,-0.007961229421198368,-37.6235588,6.168342642398359,63.779698999999994,264.0,2.62560772895813,-0.006414376199245453,17.0,0.3452022075653076,0.07478475570678711,,,,,,,,,,,,,,,,,,,,,,,,,,,,,,,,,
54.881472,0.1222083643078804,-0.05646229907870293,63.960392,0.10018189906447451,0.0,-0.05365033075213432,0.9955800175666809,145.12649389999999,0.0,0.0,73.0,0.0,0.0,160.33,-0.0153588974175501,-0.8332690596580505,-432.0,-0.004669755231589079,-37.6235589,6.168168109473161,63.979689,263.0,2.6229987144470215,-0.006311174016445875,17.0,0.3488929271697998,0.07478372007608414,,,,,,,,,,,,,,,,,,,,,,,,,,,,,,,,,
55.081471,0.12053211033344269,-0.056420642882585526,64.161087,0.10018189906447451,0.0,-0.05611030012369156,0.9955774545669556,145.12649389999999,0.0,0.0,74.0,0.0,0.0,160.32,-0.015707963267948967,-0.8359559774398804,-428.0,-0.005037599243223667,-37.6235589,6.168342642398359,64.179688,264.0,2.6207659244537354,-0.00650202389806509,17.0,0.3482321500778198,0.07483341544866562,,,,,,,,,,,,,,,,,,,,,,,,,,,,,,,,,
55.281466,0.12119439989328384,-0.05644356086850166,64.360637,0.10035643198967395,0.0,-0.059169571846723557,0.9955722093582153,145.12649399999998,0.0,0.0,74.0,0.0,0.0,160.31,-0.015707963267948967,-0.8404415249824524,-430.0,-0.0022532548755407333,-37.6235589,6.168168109473161,64.379683,264.0,2.6218767166137695,-0.006505368277430534,17.0,0.35074901580810547,0.07488590478897095,,,,,,,,,,,,,,,,,,,,,,,,,,,,,,,,,
55.481519999999996,0.12158343940973282,-0.05645935609936714,64.56121,0.10035643198967395,0.0,-0.05867813155055046,0.9955736398696899,145.12649399999998,0.0,0.0,73.0,0.0,0.0,160.31,-0.015707963267948967,-0.8404277563095093,-428.0,-0.0003524102794472128,-37.6235589,6.168168109473161,64.579737,263.0,2.62402081489563,-0.006496915128082037,17.0,0.3539773225784302,0.07485512644052505,,,,,,,,,,,,,,,,,,,,,,,,,,,,,,,,,
55.681503,0.12177640199661255,-0.05641286075115204,64.761247,0.10018189906447451,0.0,-0.05843304097652435,0.9955784678459167,145.12649399999998,0.0,0.0,74.0,0.0,0.0,160.32,-0.0158824961931484,-0.840364396572113,-429.0,-0.00024066100013442338,-37.623559,6.168342642398359,64.77972,264.0,2.624608278274536,-0.006541385781019926,17.0,0.35267460346221924,0.07482220977544785,,,,,,,,,,,,,,,,,,,,,,,,,,,,,,,,,
55.90161799999999,0.11973445862531662,-0.05638914555311203,64.960381,0.10018189906447451,0.0,-0.06112291291356087,0.9955797791481018,145.1264941,0.0,0.0,75.0,0.0,0.0,160.32,-0.0158824961931484,-0.8443532586097717,-425.0,-0.0008266065269708633,-37.6235591,6.168342642398359,64.99983499999999,264.0,2.6237170696258545,-0.006543243303894997,17.0,0.35296303033828735,0.07482243329286575,,,,,,,,,,,,,,,,,,,,,,,,,,,,,,,,,
56.081461999999995,0.1164797991514206,-0.056378427892923355,65.160623,0.10018189906447451,0.0,-0.0630306676030159,0.9955797791481018,145.1264941,0.0,0.0,74.0,0.0,0.0,160.32,-0.0158824961931484,-0.8491131663322449,-430.0,-5.9006662922911346e-05,-37.6235591,6.168342642398359,65.179679,262.0,2.620595693588257,-0.00652876915410161,17.0,0.3540460467338562,0.07483185082674026,,,,,,,,,,,,,,,,,,,,,,,,,,,,,,,,,
56.281468999999994,0.11537860333919525,-0.0564105287194252,65.360637,0.10018189906447451,0.0,-0.061097338795661926,0.9955793023109436,145.1264942,0.0,0.0,73.0,0.0,0.0,160.33,-0.015707963267948967,-0.8486438989639282,-431.0,0.0006386972381733358,-37.6235591,6.168342642398359,65.37968599999999,265.0,2.617328405380249,-0.006473488174378872,17.0,0.35472559928894043,0.07481804490089417,,,,,,,,,,,,,,,,,,,,,,,,,,,,,,,,,
56.462015,0.1141999289393425,-0.05645163729786873,65.520144,0.10018189906447451,0.0,-0.05783513933420181,0.9955800771713257,145.1264943,0.0,0.0,73.0,0.0,0.0,160.32,-0.015533430342749533,-0.8452514410018921,-429.0,0.0003888393985107541,-37.6235591,6.168168109473161,65.560232,265.0,2.6133222579956055,-0.006405343767255545,17.0,0.35512498021125793,0.07478377223014832,,,,,,,,,,,,,,,,,,,,,,,,,,,,,,,,,
56.681487999999995,0.11368872225284576,-0.05644669011235237,65.76122699999999,0.10000736613927509,0.0,-0.05786867067217827,0.9955832362174988,145.12649439999998,0.0,0.0,74.0,0.0,0.0,160.34,-0.015533430342749533,-0.8464891910552979,-429.0,0.003223043167963624,-37.623559199999995,6.168168109473161,65.77970499999999,264.0,2.612603187561035,-0.006391213275492191,17.0,0.3597201108932495,0.07474655658006668,,,,,,,,,,,,,,,,,,,,,,,,,,,,,,,,,
56.881466999999994,0.1139916479587555,-0.056436724960803986,65.960376,0.10018189906447451,0.0,-0.06078061833977699,0.9955809712409973,145.1264945,0.0,0.0,72.0,0.0,0.0,160.36,-0.0153588974175501,-0.8512678146362305,-432.0,0.007244471460580826,-37.6235593,6.168342642398359,65.97968399999999,265.0,2.614347219467163,-0.00632641464471817,17.0,0.3667084276676178,0.07478946447372437,,,,,,,,,,,,,,,,,,,,,,,,,,,,,,,,,
57.10160199999999,0.11301314830780029,-0.05645504221320152,66.160378,0.10035643198967395,0.0,-0.06514143943786621,0.9955756068229675,145.1264946,0.0,0.0,73.0,0.0,0.0,160.38,-0.0153588974175501,-0.8586341142654419,-431.0,0.009716713801026344,-37.6235594,6.168168109473161,66.19981899999999,262.0,2.611232280731201,-0.006274344865232706,17.0,0.37389034032821655,0.07485085725784302,,,,,,,,,,,,,,,,,,,,,,,,,,,,,,,,,
57.281484999999996,0.11268586665391922,-0.056452419608831406,66.360641,0.10035643198967395,0.0,-0.06642352044582367,0.9955744743347168,145.1264947,0.0,0.0,73.0,0.0,0.0,160.39000000000001,-0.015184364492350668,-0.8631472587585449,-431.0,0.011519749648869038,-37.6235593,6.168168109473161,66.379702,265.0,2.608045816421509,-0.006255765911191702,17.0,0.37972384691238403,0.07487083971500397,,,,,,,,,,,,,,,,,,,,,,,,,,,,,,,,,
57.481439,0.11271842569112778,-0.05647344887256622,66.561168,0.10035643198967395,0.0,-0.0644138976931572,0.9955748915672302,145.1264947,0.0,0.0,73.0,0.0,0.0,160.4,-0.0153588974175501,-0.8633037209510803,-431.0,0.014576352201402187,-37.623559199999995,6.168168109473161,66.579656,265.0,2.607595443725586,-0.0062757995910942554,17.0,0.3877257704734802,0.07484668493270874,,,,,,,,,,,,,,,,,,,,,,,,,,,,,,,,,
57.681588,0.11230221390724182,-0.05643012374639511,66.76121499999999,0.10018189906447451,0.0,-0.06470213085412979,0.9955803155899048,145.12649489999998,0.0,0.0,73.0,0.0,0.0,160.4,-0.015184364492350668,-0.8654822111129761,-433.0,0.017118599265813828,-37.623559199999995,6.168342642398359,66.779805,263.0,2.6050992012023926,-0.006258815061300993,17.0,0.39520612359046936,0.07480958849191666,,,,,,,,,,,,,,,,,,,,,,,,,,,,,,,,,
57.862038000000005,0.11201418191194534,-0.0564163476228714,66.920248,0.10018189906447451,0.0,-0.06483923643827438,0.9955834150314331,145.126495,0.0,0.0,73.0,0.0,0.0,160.41,-0.015009831567151233,-0.8658350706100464,-430.0,0.021297261118888855,-37.623559199999995,6.168342642398359,66.960255,265.0,2.6022725105285645,-0.0061457897536456585,17.0,0.4041513204574585,0.07478689402341843,,,,,,,,,,,,,,,,,,,,,,,,,,,,,,,,,
58.081478,0.11074598878622055,-0.05634437873959541,67.161096,0.10018189906447451,0.0,-0.06544347107410431,0.9955896139144897,145.1264952,0.0,0.0,73.0,0.0,0.0,160.41,-0.015009831567151233,-0.8679471015930176,-428.0,0.02614014409482479,-37.623559199999995,6.168517175323559,67.179695,264.0,2.5980703830718994,-0.006174865644425154,17.0,0.41717854142189026,0.07475771009922028,,,,,,,,,,,,,,,,,,,,,,,,,,,,,,,,,
58.281445,0.11113658547401428,-0.05632646009325981,67.36069599999999,0.10018189906447451,0.0,-0.0646856427192688,0.995590090751648,145.12649539999998,0.0,0.0,73.0,0.0,0.0,160.41,-0.015009831567151233,-0.8690959215164185,-432.0,0.03353758156299591,-37.623559199999995,6.168517175323559,67.379662,265.0,2.5959818363189697,-0.006114445626735687,17.0,0.4340268671512604,0.0747685357928276,,,,,,,,,,,,,,,,,,,,,,,,,,,,,,,,,
58.481439,0.11032410711050034,-0.05631962791085243,67.56133,0.10018189906447451,0.0,-0.06557529419660568,0.9955917000770569,145.1264955,0.0,0.0,73.0,0.0,0.0,160.41,-0.014835298641951801,-0.8710241913795471,-432.0,0.04066462814807892,-37.6235593,6.168517175323559,67.579656,264.0,2.5943124294281006,-0.0061025735922157764,17.0,0.45186907052993774,0.07475277781486511,,,,,,,,,,,,,,,,,,,,,,,,,,,,,,,,,
58.681901,0.11165322363376617,-0.05631263926625252,67.761119,0.10018189906447451,0.0,-0.06741320341825485,0.9955914616584778,145.1264956,0.0,0.0,72.0,0.0,0.0,160.43,-0.014835298641951801,-0.8753576278686523,-433.0,0.04708574712276459,-37.623559199999995,6.168517175323559,67.780118,264.0,2.5932812690734863,-0.006025676615536213,17.0,0.46910718083381653,0.07476798444986343,,,,,,,,,,,,,,,,,,,,,,,,,,,,,,,,,
58.881477999999994,0.11243799328804016,-0.05630544200539589,67.960377,0.10018189906447451,0.0,-0.06727498024702072,0.9955927729606628,145.1264957,0.0,0.0,73.0,0.0,0.0,160.45000000000002,-0.014835298641951801,-0.8772157430648804,-432.0,0.051749665290117264,-37.623559199999995,6.168517175323559,67.97969499999999,265.0,2.595149517059326,-0.006063664797693491,17.0,0.48457926511764526,0.07475339621305466,,,,,,,,,,,,,,,,,,,,,,,,,,,,,,,,,
59.10165,0.11412633955478668,-0.056287866085767746,68.16123,0.10018189906447451,0.0,-0.06929918378591537,0.995591938495636,145.1264958,0.0,0.0,75.0,0.0,0.0,160.49,-0.015009831567151233,-0.8803079128265381,-424.0,0.056211475282907486,-37.6235593,6.168517175323559,68.199867,264.0,2.5936930179595947,-0.0061075142584741116,17.0,0.499447762966156,0.07477427273988724,,,,,,,,,,,,,,,,,,,,,,,,,,,,,,,,,
59.26197199999999,0.11445081233978271,-0.05628382787108421,68.320374,0.10018189906447451,0.0,-0.07232087105512619,0.9955905675888062,145.1264957,0.0,0.0,74.0,0.0,0.0,160.52,-0.014835298641951801,-0.887142539024353,-429.0,0.056503355503082275,-37.6235594,6.168517175323559,68.36018899999999,264.0,2.5922868251800537,-0.006093688774853945,17.0,0.5080560445785522,0.07479729503393173,,,,,,,,,,,,,,,,,,,,,,,,,,,,,,,,,
59.48149899999999,0.11538000404834747,-0.05633741617202759,68.561084,0.10018189906447451,0.0,-0.0774298831820488,0.9955866932868958,145.1264958,0.0,0.0,74.0,0.0,0.0,160.55,-0.014835298641951801,-0.8980426788330078,-430.0,0.0553128644824028,-37.6235594,6.168517175323559,68.57971599999999,264.0,2.590053081512451,-0.006078396923840046,17.0,0.514629065990448,0.07480768859386444,,,,,,,,,,,,,,,,,,,,,,,,,,,,,,,,,
59.681515999999995,0.11442787200212479,-0.05635303258895874,68.7612,0.10018189906447451,0.0,-0.0802915096282959,0.9955853223800659,145.1264958,0.0,0.0,74.0,0.0,0.0,160.57,-0.015009831567151233,-0.90509033203125,-431.0,0.05485421046614647,-37.6235594,6.168517175323559,68.779733,264.0,2.5830602645874023,-0.006137774791568518,17.0,0.5212655663490295,0.0748106837272644,,,,,,,,,,,,,,,,,,,,,,,,,,,,,,,,,
59.881530000000005,0.11192083358764648,-0.05642441660165787,68.960685,0.10018189906447451,0.0,-0.08108000457286835,0.9955829381942749,145.1264958,0.0,0.0,74.0,0.0,0.0,160.61,-0.015009831567151233,-0.9090659022331238,-430.0,0.05170855298638344,-37.6235594,6.168342642398359,68.979747,263.0,2.572204113006592,-0.006123114377260208,17.0,0.5256986021995544,0.07479053735733032,,,,,,,,,,,,,,,,,,,,,,,,,,,,,,,,,
60.081459,0.1112658679485321,-0.05645813047885895,69.16122899999999,0.10000736613927509,0.0,-0.07956914603710175,0.9955844283103943,145.12649589999998,0.0,0.0,74.0,0.0,0.0,160.64000000000001,-0.015184364492350668,-0.910462498664856,-427.0,0.048046600073575974,-37.6235594,6.168168109473161,69.179676,264.0,2.559654474258423,-0.006229807622730732,17.0,0.5281485915184021,0.07473483681678772,,,,,,,,,,,,,,,,,,,,,,,,,,,,,,,,,
60.30185099999999,0.11182832717895508,-0.05644901841878891,69.360389,0.10000736613927509,0.0,-0.075133316218853,0.9955892562866211,145.12649589999998,0.0,0.0,74.0,0.0,0.0,160.64000000000001,-0.0153588974175501,-0.9080026745796204,-427.0,0.04542630910873413,-37.6235594,6.168168109473161,69.40006799999999,262.0,2.5468530654907227,-0.006328371819108725,17.0,0.5320286750793457,0.07466951012611389,,,,,,,,,,,,,,,,,,,,,,,,,,,,,,,,,
60.481514,0.111056849360466,-0.056439176201820374,69.561154,0.09983283321407564,0.0,-0.07427730411291122,0.9955942630767822,145.126496,0.0,0.0,74.0,0.0,0.0,160.64000000000001,-0.015533430342749533,-0.9071043729782104,-430.0,0.042794521898031235,-37.6235594,6.168168109473161,69.579731,262.0,2.536804676055908,-0.006386021617799997,17.0,0.5344864726066589,0.07460537552833557,,,,,,,,,,,,,,,,,,,,,,,,,,,,,,,,,
