time_index,velocity_z,quaternion_3,time_actual,axis_rate_yaw,attitude_pitch,acceleration_z,wind_y,velocity_x,servos_4,quaternion_0,global_position_longitude,acceleration_x,mode_0,airspeed_0,servos_6,axis_rate_pitch,mode_2,magnetometer_1,mode_1,altitude_baro,wind_x,acceleration_y,servos_3,tx_controls_3,altitude_gps,attitude_roll,position_x,servos_0,servos_2,velocity_y,tx_controls_5,magnetometer_2,tx_controls_7,global_position_latitude,attitude_yaw,tx_controls_4,time_flight,magnetometer_0,servos_7,servos_1,tx_controls_6,tx_controls_1,position_z,axis_rate_roll,quaternion_1,tx_controls_2,servos_5,gps_sat_count_0,tx_controls_0,position_y,quaternion_2,battery_0,current_1,rpm_0,rpm_1,current_2,current_3,current_0,battery_1,airspeed_1
0.0,0.0,0.0,8.745491,7.999683872911539e-05,-0.05305800926062762,-9.871808052062988,0.0,0.0,0.0,1.0,-2.7913018999999997,1.714255452156067,1.0,0.0,0.0,7.260516067732487e-05,3.0,-93.0,1.0,0.015445392578840256,0.0,0.011128232814371586,0.0,1500.0,-2.44,0.008028514559173916,0.0,0.0,0.0,0.0,0.0,367.0,0.0,51.4594338,0.0,0.0,8.764968999999999,-249.0,0.0,0.0,0.0,1500.0,0.0,-0.00044788491855383197,0.0,0.0,0.0,18.0,1500.0,0.0,0.0,,,,,,,,,
0.10000500000000123,0.0,0.0,8.825066,-5.833124547654197e-05,-0.05305800926062762,-9.803133010864258,0.0,0.0,0.0,1.0,-2.7913018999999997,1.5799566507339478,1.0,0.0,0.0,3.15222730291991e-06,3.0,-92.0,1.0,-0.005148464348167181,0.0,0.04149523004889488,0.0,1500.0,-2.44,0.008028514559173916,0.0,0.0,0.0,0.0,0.0,369.0,0.0,51.4594338,0.0,0.0,8.864974,-248.0,0.0,0.0,0.0,1500.0,0.0,0.0003993826498587049,0.0,0.0,0.0,18.0,1500.0,0.0,0.0,,,,,,,,,
0.19999000000000144,0.0,0.0,8.945466999999999,7.053536728751905e-06,-0.05305800926062762,-9.747851371765137,0.0,0.0,0.0,1.0,-2.7913023,1.6187658309936523,1.0,0.0,0.0,1.4241918947375593e-05,3.0,-93.0,1.0,-0.15445393323898315,0.0,0.2516275644302368,0.0,1500.0,-2.49,0.008028514559173916,0.0,0.0,0.0,0.0,0.0,369.0,0.0,51.459433499999996,0.0,0.0,8.964959,-249.0,0.0,0.0,0.0,1500.0,0.0,-5.534224782993529e-05,0.0,0.0,0.0,18.0,1500.0,0.0,0.0,,,,,,,,,
0.300021000000001,0.0,0.0,9.02549,1.959231527317601e-05,-0.05305800926062762,-9.726232528686523,0.0,0.0,0.0,1.0,-2.7913023,1.5790791511535645,1.0,0.0,0.0,1.312949267384819e-05,3.0,-94.0,1.0,-0.11326621472835541,0.0,-0.008599517866969109,0.0,1500.0,-2.49,0.008028514559173916,0.0,0.0,0.0,0.0,0.0,371.0,0.0,51.459433499999996,0.0,0.0,9.06499,-253.0,0.0,0.0,0.0,1500.0,0.0,-2.3257615884166567e-05,0.0,0.0,0.0,18.0,1500.0,0.0,0.0,,,,,,,,,
0.4000010000000014,0.0,0.0,9.145502,3.614389537959059e-06,-0.05305800926062762,-9.722787857055664,0.0,0.0,0.0,1.0,-2.7913028,1.6200096607208252,1.0,0.0,0.0,9.338098683578134e-06,3.0,-95.0,1.0,-0.0823754295706749,0.0,0.012739422731101513,0.0,1500.0,-2.54,0.008028514559173916,0.0,0.0,0.0,0.0,0.0,369.0,0.0,51.4594332,0.0,0.0,9.16497,-253.0,0.0,0.0,0.0,1500.0,0.0,0.00015881502061641055,0.0,0.0,0.0,17.0,1500.0,0.0,0.0,,,,,,,,,
0.5000210000000003,0.0,0.0,9.225041,1.720002159279575e-05,-0.05305800926062762,-9.683027267456055,0.0,0.0,0.0,1.0,-2.7913028,1.6219686269760132,1.0,0.0,0.0,9.026462591572913e-06,3.0,-94.0,1.0,-0.03603925183415413,0.0,0.07620783150196075,0.0,1500.0,-2.54,0.008028514559173916,0.0,0.0,0.0,0.0,0.0,368.0,0.0,51.4594332,0.0,0.0,9.26499,-253.0,0.0,0.0,0.0,1500.0,0.0,-4.195206924985369e-05,0.0,0.0,0.0,17.0,1500.0,0.0,0.0,,,,,,,,,
0.59999,0.0,0.0,9.345479,-9.813808149580496e-07,-0.05305800926062762,-9.718707084655762,0.0,0.0,0.0,1.0,-2.7913033,1.6138321161270142,1.0,0.0,0.0,1.0291728247347085e-05,3.0,-94.0,1.0,-0.07207850366830826,0.0,-0.031691502779722214,0.0,1500.0,-2.62,0.008028514559173916,0.0,0.0,0.0,0.0,0.0,370.0,0.0,51.459432799999995,0.0,0.0,9.364958999999999,-253.0,0.0,0.0,0.0,1500.0,0.0,1.2344665569950677e-05,0.0,0.0,0.0,18.0,1500.0,0.0,0.0,,,,,,,,,
0.7000090000000014,0.0,0.0,9.425089,-3.2877039301922104e-06,-0.05305800926062762,-9.699630737304688,0.0,0.0,0.0,1.0,-2.7913033,1.619558334350586,1.0,0.0,0.0,2.671936312745342e-06,3.0,-95.0,1.0,-0.09267235547304153,0.0,-0.008052040822803974,0.0,1500.0,-2.62,0.008028514559173916,0.0,0.0,0.0,0.0,0.0,369.0,0.0,51.459432799999995,0.0,0.0,9.464978,-254.0,0.0,0.0,0.0,1500.0,0.0,4.2732113424364265e-05,0.0,0.0,0.0,18.0,1500.0,0.0,0.0,,,,,,,,,
0.8000129999999999,0.0,0.0,9.545981,5.2441254864949855e-06,-0.05305800926062762,-9.699760437011719,0.0,0.0,0.0,1.0,-2.7913037,1.6310468912124634,1.0,0.0,0.0,-6.252874044603992e-06,3.0,-94.0,1.0,-0.13386006653308868,0.0,0.012513397261500359,0.0,1500.0,-2.69,0.008028514559173916,0.0,0.0,0.0,0.0,0.0,366.0,0.0,51.4594326,0.0,0.0,9.564981999999999,-249.0,0.0,0.0,0.0,1500.0,0.0,-2.8797310634688736e-07,0.0,0.0,0.0,18.0,1500.0,0.0,0.0,,,,,,,,,
0.9000240000000002,0.0,0.0,9.625537,-2.1449416628901704e-06,-0.05305800926062762,-9.69369125366211,0.0,0.0,0.0,1.0,-2.7913037,1.6177045106887817,1.0,0.0,0.0,1.8549159186617238e-05,3.0,-93.0,1.0,-0.1390085369348526,0.0,0.006434064358472824,0.0,1500.0,-2.69,0.008028514559173916,0.0,0.0,0.0,0.0,0.0,364.0,0.0,51.4594326,0.0,0.0,9.664992999999999,-248.0,0.0,0.0,0.0,1500.0,0.0,8.262106181631813e-05,0.0,0.0,0.0,18.0,1500.0,0.0,0.0,,,,,,,,,
1.000046000000001,0.0,0.0,9.745498999999999,4.36355293409777e-06,-0.05305800926062762,-9.687061309814453,0.0,0.0,0.0,1.0,-2.7913041,1.6363136768341064,1.0,0.0,0.0,-1.8382632377091326e-06,3.0,-93.0,1.0,-0.0823754295706749,0.0,0.0019952033180743456,0.0,1500.0,-2.72,0.008028514559173916,0.0,0.0,0.0,0.0,0.0,364.0,0.0,51.4594324,0.0,0.0,9.765015,-248.0,0.0,0.0,0.0,1500.0,0.0,5.4445934177413625e-05,0.0,0.0,0.0,18.0,1500.0,0.0,0.0,,,,,,,,,
1.1000130000000006,0.0,0.0,9.825061,-1.5286415026258358e-05,-0.05305800926062762,-9.540779113769531,0.0,0.0,0.0,1.0,-2.7913041,1.6955310106277466,1.0,0.0,0.0,-4.212247888778166e-05,3.0,-92.0,1.0,-0.24197782576084137,0.0,-0.007224872708320618,0.0,1500.0,-2.72,0.008028514559173916,0.0,0.0,0.0,0.0,0.0,363.0,0.0,51.4594324,0.0,0.0,9.864982,-248.0,0.0,0.0,0.0,1500.0,0.0,-2.789415491938992e-06,0.0,0.0,0.0,18.0,1500.0,0.0,0.0,,,,,,,,,
1.2000200000000003,0.0,0.0,9.94545,-1.1591612234002583e-05,-0.05305800926062762,-9.735761642456055,0.0,0.0,0.0,1.0,-2.7913045,1.7711036205291748,1.0,0.0,0.0,-4.799981322615744e-05,3.0,-92.0,1.0,-0.10811775177717209,0.0,-0.003589429659768939,0.0,1500.0,-2.77,0.008028514559173916,0.0,0.0,0.0,0.0,0.0,365.0,0.0,51.4594321,0.0,0.0,9.964989,-248.0,0.0,0.0,0.0,1500.0,0.0,-4.292153287000004e-05,0.0,0.0,0.0,18.0,1500.0,0.0,0.0,,,,,,,,,
1.3000129999999999,0.0,0.0,10.025603,-1.3373612048749233e-05,-0.05305800926062762,-9.784402847290039,0.0,0.0,0.0,1.0,-2.7913045,1.6106071472167969,1.0,0.0,0.0,-1.873174964938577e-05,3.0,-93.0,1.0,-0.20079010725021362,0.0,-0.08944040536880493,0.0,1500.0,-2.77,0.008028514559173916,0.0,0.0,0.0,0.0,0.0,367.0,0.0,51.4594321,0.0,0.0,10.064981999999999,-251.0,0.0,0.0,0.0,1500.0,0.0,4.680873783530877e-05,0.0,0.0,0.0,18.0,1500.0,0.0,0.0,,,,,,,,,
1.4000190000000003,0.0,0.0,10.14546,-2.7448821321839006e-05,-0.05305800926062762,-9.717479705810547,0.0,0.0,0.0,1.0,-2.7913049,1.6268436908721924,1.0,0.0,0.0,-2.461580528360352e-05,3.0,-95.0,1.0,-0.19049318134784698,0.0,0.0634189248085022,0.0,1500.0,-2.81,0.008028514559173916,0.0,0.0,0.0,0.0,0.0,367.0,0.0,51.4594318,0.0,0.0,10.164988,-251.0,0.0,0.0,0.0,1500.0,0.0,0.00012357899695808315,0.0,0.0,0.0,18.0,1500.0,0.0,0.0,,,,,,,,,
1.4999980000000015,0.0,0.0,10.225045,-7.522047418705874e-06,-0.05305800926062762,-9.66495418548584,0.0,0.0,0.0,1.0,-2.7913049,1.6626689434051514,1.0,0.0,0.0,2.679803053125068e-07,3.0,-94.0,1.0,-0.2471262812614441,0.0,-0.01766175776720047,0.0,1500.0,-2.81,0.008028514559173916,0.0,0.0,0.0,0.0,0.0,368.0,0.0,51.4594318,0.0,0.0,10.264967,-252.0,0.0,0.0,0.0,1500.0,0.0,-3.9152133446685635e-05,0.0,0.0,0.0,18.0,1500.0,0.0,0.0,,,,,,,,,
1.6000270000000008,0.0,0.0,10.345493,-3.520371755074357e-05,-0.05305800926062762,-9.750164985656738,0.0,0.0,0.0,1.0,-2.7913053,1.4672547578811646,1.0,0.0,0.0,-7.678665498033083e-06,3.0,-94.0,1.0,-0.18534471094608307,0.0,0.09339799731969833,0.0,1500.0,-2.88,0.008028514559173916,0.0,0.0,0.0,0.0,0.0,366.0,0.0,51.4594315,0.0,0.0,10.364996,-253.0,0.0,0.0,0.0,1500.0,0.0,0.00047306498962708485,0.0,0.0,0.0,18.0,1500.0,0.0,0.0,,,,,,,,,
1.700037,0.0,0.0,10.425049999999999,6.35488078248296e-05,-0.05305800926062762,-9.692305564880371,0.0,0.0,0.0,1.0,-2.7913053,1.7647802829742432,1.0,0.0,0.0,2.6510749485476928e-05,3.0,-94.0,1.0,-0.17504778504371643,0.0,0.08647309243679047,0.0,1500.0,-2.88,0.008028514559173916,0.0,0.0,0.0,0.0,0.0,371.0,0.0,51.4594315,0.0,0.0,10.465005999999999,-253.0,0.0,0.0,0.0,1500.0,0.0,-0.0004007283394358868,0.0,0.0,0.0,18.0,1500.0,0.0,0.0,,,,,,,,,
1.8000249999999998,0.0,0.0,10.54609,3.262130750680921e-05,-0.05305800926062762,-9.687057495117188,0.0,0.0,0.0,1.0,-2.7913056999999997,1.513014316558838,1.0,0.0,0.0,1.1693134685042392e-05,3.0,-94.0,1.0,-0.15960238873958588,0.0,0.10802379250526428,0.0,1500.0,-2.94,0.008028514559173916,0.0,0.0,0.0,0.0,0.0,366.0,0.0,51.459431099999996,0.0,0.0,10.564993999999999,-250.0,0.0,0.0,0.0,1500.0,0.0,-0.00014909180062114266,0.0,0.0,0.0,18.0,1500.0,0.0,0.0,,,,,,,,,
1.9000640000000004,0.0,0.0,10.62551,6.270374100535693e-05,-0.05305800926062762,-9.648832321166992,0.0,0.0,0.0,1.0,-2.7913056999999997,1.7017052173614502,1.0,0.0,0.0,4.885930197969488e-05,3.0,-93.0,1.0,0.06435580551624298,0.0,-0.005450743716210127,0.0,1500.0,-2.94,0.008028514559173916,0.0,0.0,0.0,0.0,0.0,365.0,0.0,51.459431099999996,0.0,0.0,10.665033,-248.0,0.0,0.0,0.0,1500.0,0.0,-0.0002004013440918021,0.0,0.0,0.0,18.0,1500.0,0.0,0.0,,,,,,,,,
1.999981,0.0,0.0,10.745484,-1.8982524285632146e-05,-0.05305800926062762,-9.729907035827637,0.0,0.0,0.0,1.0,-2.7913059,1.542942762374878,1.0,0.0,0.0,2.3593997641848723e-05,3.0,-93.0,1.0,-0.11841467767953873,0.0,0.1711486577987671,0.0,1500.0,-3.0300000000000002,0.008028514559173916,0.0,0.0,0.0,0.0,0.0,366.0,0.0,51.4594306,0.0,0.0,10.764949999999999,-248.0,0.0,0.0,0.0,1500.0,0.0,5.77830819449179e-05,0.0,0.0,0.0,18.0,1500.0,0.0,0.0,,,,,,,,,
2.1000259999999997,0.0,0.0,10.825061,-2.813488520074066e-05,-0.05305800926062762,-9.88109302520752,0.0,0.0,0.0,1.0,-2.7913059,2.0325069427490234,1.0,0.0,0.0,0.00011073532393580245,3.0,-92.0,1.0,-0.12871161103248596,0.0,-0.002135944552719593,0.0,1500.0,-3.0300000000000002,0.008028514559173916,0.0,0.0,0.0,0.0,0.0,365.0,0.0,51.4594306,0.0,0.0,10.864994999999999,-248.0,0.0,0.0,0.0,1500.0,0.0,8.29355160574566e-05,0.0,0.0,0.0,18.0,1500.0,0.0,0.0,,,,,,,,,
2.2000550000000008,0.0,0.0,10.945523999999999,3.530004664260198e-05,-0.05305800926062762,-9.843843460083008,0.0,0.0,0.0,1.0,-2.7913061,1.6643661260604858,1.0,0.0,0.0,1.8339514898535594e-05,3.0,-92.0,1.0,-0.22653242945671082,0.0,-0.18858179450035095,0.0,1500.0,-3.12,0.008028514559173916,0.0,0.0,0.0,0.0,0.0,366.0,0.0,51.4594301,0.0,0.0,10.965024,-248.0,0.0,0.0,0.0,1500.0,0.0,-6.890941511564023e-05,0.0,0.0,0.0,18.0,1500.0,0.0,0.0,,,,,,,,,
2.300021000000001,0.0,0.0,11.02544,-4.063680836872056e-05,-0.05305800926062762,-9.423957824707031,0.0,0.0,0.0,1.0,-2.7913061,1.8781335353851318,1.0,0.0,0.0,1.8870332691767016e-05,3.0,-93.0,1.0,-0.12356314063072205,0.0,0.24859467148780823,0.0,1500.0,-3.12,0.008028514559173916,0.0,0.0,0.0,0.0,0.0,364.0,0.0,51.4594301,0.0,0.0,11.06499,-250.0,0.0,0.0,0.0,1500.0,0.0,1.9567063681663327e-05,0.0,0.0,0.0,18.0,1500.0,0.0,0.0,,,,,,,,,
2.4000640000000004,0.0,0.0,11.145496999999999,1.6855049255059226e-05,-0.05305800926062762,-9.597419738769531,0.0,0.0,0.0,1.0,-2.7913061999999997,1.7552474737167358,11.0,0.0,0.0,2.0161435106285578e-05,3.0,-94.0,11.0,-0.07207850366830826,0.0,-0.2059299200773239,0.0,1500.0,-3.22,0.008028514559173916,0.0,0.0,0.0,0.0,0.0,369.0,0.0,51.4594296,0.0,0.0,11.165033,-253.0,0.0,0.0,0.0,1500.0,0.0,-9.730932824474679e-05,0.0,0.0,0.0,18.0,1500.0,0.0,0.0,,,,,,,,,
2.500039000000001,0.0,0.0,11.225201,-1.096965667626348e-05,-0.05305800926062762,-9.657997131347656,0.0,0.0,0.0,1.0,-2.7913061999999997,1.6728041172027588,11.0,0.0,0.0,2.34642266490644e-05,3.0,-94.0,11.0,-0.28831401467323303,0.0,0.15313716232776642,0.0,1500.0,-3.22,0.008028514559173916,0.0,0.0,0.0,0.0,0.0,368.0,0.0,51.4594296,0.0,0.0,11.265008,-254.0,0.0,0.0,0.0,1500.0,0.0,0.00020614908420666148,0.0,0.0,0.0,18.0,1500.0,0.0,0.0,,,,,,,,,
2.600033,0.0,0.0,11.3456,2.407026890903014e-05,-0.05305800926062762,-9.67266845703125,0.0,0.0,0.0,1.0,-2.7913064,1.6660175323486328,11.0,0.0,0.0,2.049002936498397e-06,3.0,-94.0,11.0,-0.2986109256744385,0.0,-0.10863573104143143,0.0,1500.0,-3.29,0.008028514559173916,0.0,0.0,0.0,0.0,0.0,368.0,0.0,51.4594293,0.0,0.0,11.365001999999999,-253.0,0.0,0.0,0.0,1500.0,0.0,-0.00016572968171916534,0.0,0.0,0.0,18.0,1500.0,0.0,0.0,,,,,,,,,
2.7000590000000013,0.0,0.0,11.42506,-2.178013161085737e-05,-0.05305800926062762,-9.678363800048828,0.0,0.0,0.0,1.0,-2.7913064,1.6352405548095703,11.0,0.0,0.0,1.1843217888991209e-05,3.0,-94.0,11.0,-0.10811775177717209,0.0,0.07975023984909058,0.0,1500.0,-3.29,0.008028514559173916,0.0,0.0,0.0,0.0,0.0,368.0,0.0,51.4594293,0.0,0.0,11.465028,-253.0,0.0,0.0,0.0,1500.0,0.0,0.00019438478465255474,0.0,0.0,0.0,18.0,1500.0,0.0,0.0,,,,,,,,,
2.800077,0.0,0.0,11.545983999999999,1.5016858147338725e-05,-0.05305800926062762,-9.68766975402832,0.0,0.0,0.0,1.0,-2.7913066,1.6523624658584595,11.0,0.0,0.0,2.2136412546626517e-07,3.0,-93.0,11.0,-0.23168089985847473,0.0,-0.04522249847650528,0.0,1500.0,-3.35,0.008028514559173916,0.0,0.0,0.0,0.0,0.0,366.0,0.0,51.4594288,0.0,0.0,11.565045999999999,-250.0,0.0,0.0,0.0,1500.0,0.0,-0.00011872800937116922,0.0,0.0,0.0,18.0,1500.0,0.0,0.0,,,,,,,,,
2.900049000000001,0.0,0.0,11.625516,-2.728017124926749e-05,-0.05305800926062762,-9.7008695602417,0.0,0.0,0.0,1.0,-2.7913066,1.643447995185852,11.0,0.0,0.0,9.055984075229457e-06,3.0,-92.0,11.0,-0.06693003326654434,0.0,0.04236923158168793,0.0,1500.0,-3.35,0.008028514559173916,0.0,0.0,0.0,0.0,0.0,364.0,0.0,51.4594288,0.0,0.0,11.665018,-247.0,0.0,0.0,0.0,1500.0,0.0,0.00015049298355746476,0.0,0.0,0.0,18.0,1500.0,0.0,0.0,,,,,,,,,
3.000032000000001,0.0,0.0,11.745534,8.142321128611484e-06,-0.05305800926062762,-9.704699516296387,0.0,0.0,0.0,1.0,-2.7913067,1.6239429712295532,11.0,0.0,0.0,-7.614453680496e-08,3.0,-92.0,11.0,-0.19049318134784698,0.0,-0.022934988141059875,0.0,1500.0,-3.44,0.008028514559173916,0.0,0.0,0.0,0.0,0.0,364.0,0.0,51.4594283,0.0,0.0,11.765001,-248.0,0.0,0.0,0.0,1500.0,0.0,-0.0001473899392555952,0.0,0.0,0.0,18.0,1500.0,0.0,0.0,,,,,,,,,
3.100033,0.0,0.0,11.825137,-1.4870478970693387e-05,-0.05305800926062762,-9.694576263427734,0.0,0.0,0.0,1.0,-2.7913067,1.6351594924926758,11.0,0.0,0.0,1.0042013210792845e-05,3.0,-93.0,11.0,-0.2831655442714691,0.0,0.009005790576338768,0.0,1500.0,-3.44,0.008028514559173916,0.0,0.0,0.0,0.0,0.0,364.0,0.0,51.4594283,0.0,0.0,11.865001999999999,-248.0,0.0,0.0,0.0,1500.0,0.0,0.0001412051442372321,0.0,0.0,0.0,18.0,1500.0,0.0,0.0,,,,,,,,,
3.2000520000000012,0.0,0.0,11.945506,2.759916663194369e-05,-0.05305800926062762,-9.678248405456543,0.0,0.0,0.0,1.0,-2.7913067,1.6378991603851318,11.0,0.0,0.0,5.042600393753272e-06,3.0,-92.0,11.0,-0.35009557008743286,0.0,0.015674488618969917,0.0,1500.0,-3.52,0.008028514559173916,0.0,0.0,0.0,0.0,0.0,365.0,0.0,51.4594277,0.0,0.0,11.965021,-248.0,0.0,0.0,0.0,1500.0,0.0,-0.00010636045116510868,0.0,0.0,0.0,18.0,1500.0,0.0,0.0,,,,,,,,,
3.300058,0.0,0.0,12.025504999999999,-3.024698333683595e-05,-0.05305800926062762,-9.695331573486328,0.0,0.0,0.0,1.0,-2.7913067,1.6448111534118652,11.0,0.0,0.0,2.270497826141674e-05,3.0,-93.0,11.0,-0.18019625544548035,0.0,-0.03517632558941841,0.0,1500.0,-3.52,0.008028514559173916,0.0,0.0,0.0,0.0,0.0,367.0,0.0,51.4594277,0.0,0.0,12.065026999999999,-250.0,0.0,0.0,0.0,1500.0,0.0,4.909339325434562e-05,0.0,0.0,0.0,18.0,1500.0,0.0,0.0,,,,,,,,,
3.400041,0.0,0.0,12.145527,-2.765189263771728e-05,-0.05305800926062762,-9.68053150177002,0.0,0.0,0.0,1.0,-2.7913064,1.6405136585235596,11.0,0.0,0.0,2.090099099112177e-05,3.0,-94.0,11.0,-0.1647508591413498,0.0,0.0750928595662117,0.0,1500.0,-3.62,0.008028514559173916,0.0,0.0,0.0,0.0,0.0,367.0,0.0,51.4594266,0.0,0.0,12.165009999999999,-252.0,0.0,0.0,0.0,1500.0,0.0,0.0001382082752786267,0.0,0.0,0.0,18.0,1500.0,0.0,0.0,,,,,,,,,
3.5000350000000005,0.0,0.0,12.225052999999999,1.0118028059656099e-05,-0.05305800926062762,-9.711566925048828,0.0,0.0,0.0,1.0,-2.7913064,1.6126902103424072,11.0,0.0,0.0,2.346727591893587e-06,3.0,-94.0,11.0,-0.3140563368797302,0.0,0.03326880559325218,0.0,1500.0,-3.62,0.008028514559173916,0.0,0.0,0.0,0.0,0.0,367.0,0.0,51.4594266,0.0,0.0,12.265004,-254.0,0.0,0.0,0.0,1500.0,0.0,-0.0001644411922388828,0.0,0.0,0.0,18.0,1500.0,0.0,0.0,,,,,,,,,
3.600048000000001,0.0,0.0,12.345594,-2.32343859641662e-05,-0.05305800926062762,-9.704482078552246,0.0,0.0,0.0,1.0,-2.7913063,1.6049704551696777,11.0,0.0,0.0,2.1432198895840997e-05,3.0,-94.0,11.0,-0.26772013306617737,0.0,0.00070186797529459,0.0,1500.0,-3.66,0.008028514559173916,0.0,0.0,0.0,0.0,0.0,366.0,0.0,51.459426,0.0,0.0,12.365017,-253.0,0.0,0.0,0.0,1500.0,0.0,0.0001511324738138484,0.0,0.0,0.0,18.0,1500.0,0.0,0.0,,,,,,,,,
3.700063,0.0,0.0,12.425061999999999,2.4237362599311767e-05,-0.05305800926062762,-9.699721336364746,0.0,0.0,0.0,1.0,-2.7913063,1.6150329113006592,11.0,0.0,0.0,-9.915006523629135e-06,3.0,-94.0,11.0,-0.18019625544548035,0.0,0.03091929294168949,0.0,1500.0,-3.66,0.008028514559173916,0.0,0.0,0.0,0.0,0.0,367.0,0.0,51.459426,0.0,0.0,12.465031999999999,-253.0,0.0,0.0,0.0,1500.0,0.0,-6.365466213884856e-05,0.0,0.0,0.0,18.0,1500.0,0.0,0.0,,,,,,,,,
3.8001210000000007,0.0,0.0,12.546923999999999,-4.344880410280457e-06,-0.05305800926062762,-9.700995445251465,0.0,0.0,0.0,1.0,-2.791306,1.635345458984375,11.0,0.0,0.0,1.030549186827619e-05,3.0,-93.0,11.0,-0.21623550355434418,0.0,-0.0337090790271759,0.0,1500.0,-3.73,0.008028514559173916,0.0,0.0,0.0,0.0,0.0,367.0,0.0,51.4594253,0.0,0.0,12.56509,-251.0,0.0,0.0,0.0,1500.0,0.0,9.872679020836206e-05,0.0,0.0,0.0,18.0,1500.0,0.0,0.0,,,,,,,,,
3.900082000000001,0.0,0.0,12.625791,1.2428084409759556e-05,-0.05305800926062762,-9.695046424865723,0.0,0.0,0.0,1.0,-2.791306,1.6212255954742432,11.0,0.0,0.0,1.6425467424743757e-05,3.0,-92.0,11.0,-0.3552440404891968,0.0,0.07396619766950607,0.0,1500.0,-3.73,0.008028514559173916,0.0,0.0,0.0,0.0,0.0,366.0,0.0,51.4594253,0.0,0.0,12.665051,-248.0,0.0,0.0,0.0,1500.0,0.0,-2.6473349578414327e-05,0.0,0.0,0.0,18.0,1500.0,0.0,0.0,,,,,,,,,
4.000093,0.0,0.0,12.7456,-4.1401381676585216e-07,-0.05305800926062762,-9.685441017150879,0.0,0.0,0.0,1.0,-2.7913058,1.644314169883728,11.0,0.0,0.0,2.1266706796081565e-06,3.0,-91.0,11.0,-0.26772013306617737,0.0,-0.06401047855615616,0.0,1500.0,-3.7800000000000002,0.008028514559173916,0.0,0.0,0.0,0.0,0.0,364.0,0.0,51.4594246,0.0,0.0,12.765061999999999,-248.0,0.0,0.0,0.0,1500.0,0.0,6.766961236176796e-05,0.0,0.0,0.0,18.0,1500.0,0.0,0.0,,,,,,,,,
4.100091000000001,0.0,0.0,12.825199,-2.3988293176951538e-06,-0.05305800926062762,-9.681778907775879,0.0,0.0,0.0,1.0,-2.7913058,1.643141746520996,11.0,0.0,0.0,-2.0792805786361047e-07,3.0,-91.0,11.0,-0.18534471094608307,0.0,0.0033385176211595535,0.0,1500.0,-3.7800000000000002,0.008028514559173916,0.0,0.0,0.0,0.0,0.0,364.0,0.0,51.4594246,0.0,0.0,12.86506,-248.0,0.0,0.0,0.0,1500.0,0.0,2.9642448695224122e-05,0.0,0.0,0.0,18.0,1500.0,0.0,0.0,,,,,,,,,
4.200058,0.0,0.0,12.945540999999999,6.317939865967731e-06,-0.05305800926062762,-9.68831729888916,0.0,0.0,0.0,1.0,-2.7913056,1.623565912246704,11.0,0.0,0.0,6.956384745473906e-06,3.0,-92.0,11.0,-0.3912833034992218,0.0,0.045312367379665375,0.0,1500.0,-3.86,0.008028514559173916,0.0,0.0,0.0,0.0,0.0,366.0,0.0,51.4594239,0.0,0.0,12.965027,-248.0,0.0,0.0,0.0,1500.0,0.0,6.857214747978784e-05,0.0,0.0,0.0,18.0,1500.0,0.0,0.0,,,,,,,,,
4.300090000000001,0.0,0.0,13.025504999999999,-6.609760529406212e-06,-0.05305800926062762,-9.711359024047852,0.0,0.0,0.0,1.0,-2.7913056,1.6351217031478882,11.0,0.0,0.0,3.6551305365724835e-06,3.0,-93.0,11.0,-0.22653242945671082,0.0,0.03338006138801575,0.0,1500.0,-3.86,0.008028514559173916,0.0,0.0,0.0,0.0,0.0,365.0,0.0,51.4594239,0.0,0.0,13.065059,-250.0,0.0,0.0,0.0,1500.0,0.0,-6.889407606400875e-07,0.0,0.0,0.0,18.0,1500.0,0.0,0.0,,,,,,,,,
4.400102,0.0,0.0,13.145499,-3.7151723010450396e-05,-0.05305800926062762,-9.704818725585938,0.0,0.0,0.0,1.0,-2.7913056999999997,1.631980538368225,11.0,0.0,0.0,1.363672802445876e-05,3.0,-94.0,11.0,-0.252274751663208,0.0,-0.056760311126708984,0.0,1500.0,-3.94,0.008028514559173916,0.0,0.0,0.0,0.0,0.0,366.0,0.0,51.4594233,0.0,0.0,13.165071,-254.0,0.0,0.0,0.0,1500.0,0.0,0.00015188441370659171,0.0,0.0,0.0,18.0,1500.0,0.0,0.0,,,,,,,,,
4.500054,0.0,0.0,13.225095999999999,1.0142870745247321e-06,-0.05305800926062762,-9.693449974060059,0.0,0.0,0.0,1.0,-2.7913056999999997,1.6326407194137573,11.0,0.0,0.0,-2.605146133840905e-07,3.0,-94.0,11.0,-0.252274751663208,0.0,0.0646650493144989,0.0,1500.0,-3.94,0.008028514559173916,0.0,0.0,0.0,0.0,0.0,367.0,0.0,51.4594233,0.0,0.0,13.265023,-252.0,0.0,0.0,0.0,1500.0,0.0,-5.659808172775952e-05,0.0,0.0,0.0,18.0,1500.0,0.0,0.0,,,,,,,,,
4.600059,0.0,0.0,13.345597,1.7376179279676836e-05,-0.05305800926062762,-9.68627643585205,0.0,0.0,0.0,1.0,-2.7913059,1.6338783502578735,11.0,0.0,0.0,3.4498513826971503e-06,3.0,-94.0,11.0,-0.17504778504371643,0.0,-0.027773534879088402,0.0,1500.0,-4.03,0.008028514559173916,0.0,0.0,0.0,0.0,0.0,366.0,0.0,51.4594227,0.0,0.0,13.365027999999999,-252.0,0.0,0.0,0.0,1500.0,0.0,-0.00012883018204022594,0.0,0.0,0.0,18.0,1500.0,0.0,0.0,,,,,,,,,
4.700062000000001,0.0,0.0,13.425234999999999,-3.366958787030675e-05,-0.05305800926062762,-9.687185287475586,0.0,0.0,0.0,1.0,-2.7913059,1.6574054956436157,11.0,0.0,0.0,1.7895133213651536e-05,3.0,-94.0,11.0,-0.1390085369348526,0.0,0.003905938472598791,0.0,1500.0,-4.03,0.008028514559173916,0.0,0.0,0.0,0.0,0.0,368.0,0.0,51.4594227,0.0,0.0,13.465031,-253.0,0.0,0.0,0.0,1500.0,0.0,0.00019037687675472247,0.0,0.0,0.0,18.0,1500.0,0.0,0.0,,,,,,,,,
4.800778000000001,0.0,0.00016710342606529593,13.547001999999999,-1.811890329647844e-06,0.11239920382843482,-9.684128761291504,0.0,0.0,0.0,0.9965683221817017,-2.791306,1.6517109870910645,11.0,0.0,0.0,1.1369876521629659e-05,3.0,-93.0,11.0,-0.3140563368797302,0.0,0.04347959905862808,0.0,1500.0,-4.11,0.004014257279586958,0.0,0.0,0.0,0.0,0.0,366.0,0.0,51.4594222,0.0,0.0,13.565747,-251.0,0.0,0.0,0.0,1500.0,0.0,1.6510785010309685e-05,-0.0020124551374465227,0.0,0.0,18.0,1500.0,0.0,0.08274965733289719,,,,,,,,,
4.900656,0.004079146310687065,0.00015276606427505612,13.626306,2.5272186148310712e-05,0.11239920382843482,-9.690458297729492,0.0,0.002650144277140498,0.0,0.9965677857398987,-2.791306,1.6222110986709595,11.0,0.0,0.0,2.7053053217461262e-06,3.0,-92.0,11.0,-0.28831401467323303,0.0,-0.02565147541463375,0.0,1500.0,-4.11,0.004537856055185257,0.0,0.0,0.0,-0.0033897506073117256,0.0,365.0,0.0,51.4594222,0.0,0.0,13.665624999999999,-248.0,0.0,0.0,0.0,1500.0,7.073655433487147e-05,-0.00014686052545735375,-0.0018093753606081009,0.0,0.0,18.0,1500.0,0.0,0.08276139199733734,,,,,,,,,
5.002307,0.02667289227247238,0.00019669166067615151,13.746039,-2.22470503614848e-05,0.11239920382843482,-9.693549156188965,0.0,0.0036884623114019632,0.0,0.9965658187866211,-2.7913063,1.6508692502975464,11.0,0.0,0.0,9.138381920128847e-06,3.0,-92.0,11.0,-0.34494709968566895,0.0,0.005526629742234945,0.0,1500.0,-4.18,0.0041887902047863905,0.0,0.0,0.0,-0.004570002667605877,0.0,365.0,0.0,51.4594218,0.0,0.0,13.767275999999999,-248.0,0.0,0.0,0.0,1500.0,0.0016032690182328224,0.00018146853463889704,-0.0019260597182437778,0.0,0.0,18.0,1500.0,0.0,0.08278219401836395,,,,,,,,,
5.100554000000001,0.045201852917671204,0.9688931107521057,13.825994,3.3638767538897187e-06,0.11239920382843482,-9.6813383102417,0.0,0.005332663655281067,0.0,0.23323658108711243,-2.7913063,1.6616957187652588,11.0,0.0,0.0,1.779884475840644e-05,3.0,-91.0,11.0,-0.3552440404891968,0.0,0.0255452711135149,0.0,1500.0,-4.18,0.004363323129985824,0.0,0.0,0.0,0.00019965949468314648,0.0,366.0,0.0,51.4594218,2.6687829592245293,0.0,13.865523,-248.0,0.0,0.0,0.0,1500.0,0.042509775608778,4.447503808766449e-05,-0.08085747063159943,0.0,0.0,18.0,1500.0,0.0,0.017579033970832825,,,,,,,,,
5.200633,0.06709570437669754,0.9688636660575867,13.946066,1.2740545425015032e-05,0.11239920382843482,-9.680743217468262,0.0,0.004188138991594315,0.0,0.2333415150642395,-2.7913063,1.6491420269012451,11.0,0.0,0.0,-1.5634208052916467e-06,3.0,-91.0,11.0,-0.28831401467323303,0.0,-0.02394877001643181,0.0,1500.0,-4.22,0.00471238898038469,0.0,0.0,0.0,0.009939043782651424,0.0,366.0,0.0,51.4594214,2.66860842629933,0.0,13.965601999999999,-248.0,0.0,0.0,0.0,1500.0,0.11336664110422134,-7.127497803178321e-05,-0.08087179064750671,0.0,0.0,18.0,1500.0,0.0,0.017741963267326355,,,,,,,,,
5.300632,0.07852011919021606,0.9688532948493958,14.026435,-8.616773399389477e-06,0.11257373675363426,-9.677279472351074,0.0,0.0033314786851406097,0.0,0.23337312042713165,-2.7913063,1.6565488576889038,11.0,0.0,0.0,-8.755616770074757e-07,3.0,-93.0,11.0,-0.3346501886844635,0.0,-0.02223731018602848,0.0,1500.0,-4.22,0.004537856055185257,0.0,0.0,0.0,0.012700698338449001,0.0,366.0,0.0,51.4594214,2.6684338933741305,0.0,14.065601,-250.0,0.0,0.0,0.0,1500.0,0.15861892700195312,9.648422619339479e-05,-0.08091752231121063,0.0,0.0,18.0,1500.0,0.0,0.017681816592812538,,,,,,,,,
5.400632,0.09126972407102585,0.9688315391540527,14.146139999999999,-3.0772692599816266e-06,0.11257373675363426,-9.686100006103516,0.0,0.0020145331509411335,0.0,0.2334481030702591,-2.7913063,1.663151502609253,11.0,0.0,0.0,-8.045908223738116e-06,3.0,-94.0,11.0,-0.3346501886844635,0.0,-0.0020962757989764214,0.0,1500.0,-4.29,0.004886921905584123,0.0,0.0,0.0,0.019036896526813507,0.0,369.0,0.0,51.4594209,2.668259360448931,0.0,14.165600999999999,-253.0,0.0,0.0,0.0,1500.0,0.21937134861946106,5.586926406799128e-05,-0.0809190422296524,0.0,0.0,18.0,1500.0,0.0,0.017878025770187378,,,,,,,,,
5.500562,0.09696325659751892,0.9688292741775513,14.225964999999999,4.312508776157674e-06,0.11257373675363426,-9.682096481323242,0.0,0.002819675952196121,0.0,0.2334536761045456,-2.7913063,1.6562367677688599,11.0,0.0,0.0,-1.271816481023291e-05,3.0,-94.0,11.0,-0.23168089985847473,0.0,0.029098762199282646,0.0,1500.0,-4.29,0.004886921905584123,0.0,0.0,0.0,0.023221788927912712,0.0,367.0,0.0,51.4594209,2.668259360448931,0.0,14.265531,-253.0,0.0,0.0,0.0,1500.0,0.255259245634079,-7.280073656987756e-06,-0.08092410117387772,0.0,0.0,18.0,1500.0,0.0,0.0179060660302639,,,,,,,,,
5.600628,0.10298547148704529,0.9688210487365723,14.346089,1.973000024640304e-05,0.11257373675363426,-9.682369232177734,0.0,0.0022775032557547092,0.0,0.2334877997636795,-2.7913061999999997,1.6399662494659424,11.0,0.0,0.0,9.605493694669517e-06,3.0,-94.0,11.0,-0.3552440404891968,0.0,-0.012325040064752102,0.0,1500.0,-4.3500000000000005,0.005061454830783556,0.0,0.0,0.0,0.027450527995824814,0.0,368.0,0.0,51.4594205,2.668259360448931,0.0,14.365597,-252.0,0.0,0.0,0.0,1500.0,0.299289345741272,-3.557392522534745e-05,-0.08091119676828384,0.0,0.0,18.0,1500.0,0.0,0.017964549362659454,,,,,,,,,
5.700629000000001,0.10564206540584564,0.9688152074813843,14.425974,-1.0828048238021085e-05,0.11274826967883368,-9.69833755493164,0.0,0.0014585963217541575,0.0,0.2335033267736435,-2.7913061999999997,1.6359269618988037,11.0,0.0,0.0,7.831349699212764e-07,3.0,-94.0,11.0,-0.3295017182826996,0.0,-0.030379049479961395,0.0,1500.0,-4.3500000000000005,0.005061454830783556,0.0,0.0,0.0,0.02903718873858452,0.0,367.0,0.0,51.4594205,2.668259360448931,0.0,14.465598,-251.0,0.0,0.0,0.0,1500.0,0.3233007788658142,2.2724400530749678e-05,-0.08092999458312988,0.0,0.0,18.0,1500.0,0.0,0.017990954220294952,,,,,,,,,
5.800692,0.10773235559463501,0.9687923192977905,14.546515,-7.425321611909995e-06,0.11274826967883368,-9.694791793823242,0.0,0.0012555680004879832,0.0,0.233586385846138,-2.791306,1.6177313327789307,11.0,0.0,0.0,9.704527153143906e-06,3.0,-93.0,11.0,-0.2728686034679413,0.0,0.013297181576490402,0.0,1500.0,-4.44,0.005235987755982988,0.0,0.0,0.0,0.03275066241621971,0.0,368.0,0.0,51.4594198,2.6680848275237317,0.0,14.565660999999999,-251.0,0.0,0.0,0.0,1500.0,0.3544510304927826,3.381490033585262e-05,-0.08095259964466095,0.0,0.0,18.0,1500.0,0.0,0.018040813505649567,,,,,,,,,
5.900721000000001,0.10698577761650085,0.968766987323761,14.626465,-9.04475922671708e-05,0.11274826967883368,-9.741522789001465,0.0,0.0012233220040798187,0.0,0.23368015885353088,-2.791306,1.4800939559936523,11.0,0.0,0.0,3.1252280322601684e-05,3.0,-91.0,11.0,-0.3140563368797302,0.0,0.27748772501945496,0.0,1500.0,-4.44,0.0054105206811824215,0.0,0.0,0.0,0.029889274388551712,0.0,364.0,0.0,51.4594198,2.6679102945985322,0.0,14.66569,-247.0,0.0,0.0,0.0,1500.0,0.3709613084793091,0.0005559951497789068,-0.08095654100179672,0.0,0.0,18.0,1500.0,0.0,0.018170015886425972,,,,,,,,,
6.000658,0.09828010946512222,0.96845543384552,14.746248999999999,0.0003603474116938754,0.11431906600562858,-9.564305305480957,0.0,0.04632529243826866,0.0,0.2347106784582138,-2.7913059,3.5169243812561035,11.0,0.0,0.0,0.0003857348920414777,3.0,-91.0,11.0,-0.3603925108909607,0.0,-1.4170578718185425,0.0,1500.0,-4.5,0.009250245035569947,0.0,0.0,0.0,0.02550073154270649,0.0,366.0,0.0,51.4594192,2.6659904324213386,0.0,14.765626999999999,-248.0,0.0,0.0,0.0,1500.0,0.3901255428791046,-0.0007593124146955949,-0.08120720088481903,0.0,0.0,18.0,1500.0,0.0,0.020259156823158264,,,,,,,,,
6.100657,0.12163747847080231,0.9686274528503418,14.825987,0.0001449164536218156,0.11362093430483085,-10.323246002197266,0.0,-0.03300214558839798,0.0,0.23409642279148102,-2.7913059,0.6274058818817139,11.0,0.0,0.0,-8.312556537059873e-05,3.0,-93.0,11.0,-0.2986109256744385,0.0,0.6051965951919556,0.0,1500.0,-4.5,0.0033161255787892262,0.0,0.0,0.0,0.07738959789276123,0.0,364.0,0.0,51.4594192,2.6668630970473357,0.0,14.865625999999999,-247.0,0.0,0.0,0.0,1500.0,0.40146055817604065,-0.0003010828773103583,-0.08160626888275146,0.0,0.0,18.0,1500.0,0.0,0.017327960580587387,,,,,,,,,
6.20068,0.09794870764017105,0.9685210585594177,14.946204,3.707598042689633e-05,0.1137954672300303,-9.368759155273438,0.0,-0.006557137239724398,0.0,0.2345329076051712,-2.7913061,1.587791085243225,11.0,0.0,0.0,2.763641719945236e-06,3.0,-92.0,11.0,-0.34494709968566895,0.0,-0.45364701747894287,0.0,1500.0,-4.6000000000000005,0.007504915783575617,0.0,0.0,0.0,0.03038530983030796,0.0,365.0,0.0,51.4594187,2.6663394982717374,0.0,14.965648999999999,-248.0,0.0,0.0,0.0,1500.0,0.41468071937561035,0.0002911451772700245,-0.08116748183965683,0.0,0.0,18.0,1500.0,0.0,0.019314903765916824,,,,,,,,,
6.300692,0.09827391058206558,0.9685653448104858,15.026435999999999,3.674240259553277e-05,0.1137954672300303,-9.708211898803711,0.0,0.006026135757565498,0.0,0.23435205221176147,-2.7913061,1.7197966575622559,11.0,0.0,0.0,-1.278660702620529e-05,3.0,-94.0,11.0,-0.34494709968566895,0.0,0.39004865288734436,0.0,1500.0,-4.6000000000000005,0.004537856055185257,0.0,0.0,0.0,0.049304015934467316,0.0,366.0,0.0,51.4594187,2.6663394982717374,0.0,15.065660999999999,-251.0,0.0,0.0,0.0,1500.0,0.42165321111679077,-0.0002753764483121851,-0.08147977292537689,0.0,0.0,18.0,1500.0,0.0,0.017928458750247955,,,,,,,,,
6.400644,0.0937742367386818,0.9684650301933289,15.146033,-9.938596077657318e-06,0.11397000015522972,-9.652589797973633,0.0,-0.003548187669366598,0.0,0.23473508656024933,-2.7913064,1.6655662059783936,11.0,0.0,0.0,1.4052455817380504e-05,3.0,-95.0,11.0,-0.5096979737281799,0.0,-0.43167844414711,0.0,1500.0,-4.65,0.007504915783575617,0.0,0.0,0.0,0.030616480857133865,0.0,370.0,0.0,51.4594184,2.665815899496139,0.0,15.165612999999999,-254.0,0.0,0.0,0.0,1500.0,0.43026620149612427,0.00021753578834986405,-0.08124435693025589,0.0,0.0,18.0,1500.0,0.0,0.019346579909324646,,,,,,,,,
6.500663000000001,0.09272066503763199,0.9684879779815674,15.226023999999999,4.82609156576773e-06,0.11397000015522972,-9.717556953430176,0.0,0.002551145851612091,0.0,0.23463381826877594,-2.7913064,1.6283358335494995,11.0,0.0,0.0,1.2212160749005721e-06,3.0,-94.0,11.0,-0.3861348330974579,0.0,0.30720824003219604,0.0,1500.0,-4.65,0.005235987755982988,0.0,0.0,0.0,0.04329541325569153,0.0,368.0,0.0,51.4594184,2.665815899496139,0.0,15.265632,-253.0,0.0,0.0,0.0,1500.0,0.43699702620506287,-0.0001124213695314485,-0.08150514215230942,0.0,0.0,18.0,1500.0,0.0,0.018303195014595985,,,,,,,,,
6.600663000000001,0.08954041451215744,0.9684037566184998,15.34614,-5.497476611014821e-07,0.11414453308042916,-9.668937683105469,0.0,-0.0022455749567598104,0.0,0.23494841158390045,-2.7913066,1.6555874347686768,11.0,0.0,0.0,2.005953270291129e-05,3.0,-94.0,11.0,-0.2986109256744385,0.0,-0.2780390977859497,0.0,1500.0,-4.73,0.007330382858376184,0.0,0.0,0.0,0.03034250997006893,0.0,367.0,0.0,51.4594178,2.66546683364574,0.0,15.365632,-254.0,0.0,0.0,0.0,1500.0,0.4480648338794708,3.268657600328185e-05,-0.08135585486888885,0.0,0.0,18.0,1500.0,0.0,0.019360754638910294,,,,,,,,,
6.700651000000001,0.08798373490571976,0.9684117436408997,15.425987,-9.30185488816429e-06,0.11414453308042916,-9.702836990356445,0.0,-5.31119731022045e-05,0.0,0.2349066436290741,-2.7913066,1.6473581790924072,11.0,0.0,0.0,2.063310021334797e-05,3.0,-94.0,11.0,-0.48910412192344666,0.0,0.20735426247119904,0.0,1500.0,-4.73,0.005934119456780721,0.0,0.0,0.0,0.034697696566581726,0.0,368.0,0.0,51.4594178,2.665292300720541,0.0,15.46562,-253.0,0.0,0.0,0.0,1500.0,0.453230619430542,8.22171420073098e-05,-0.08154057711362839,0.0,0.0,18.0,1500.0,0.0,0.018678024411201477,,,,,,,,,
6.800706,0.08412568271160126,0.9683461785316467,15.546895,1.1683374786439949e-05,0.11449359893082803,-9.681741714477539,0.0,-0.002226610668003559,0.0,0.23513838648796082,-2.7913066,1.6544427871704102,11.0,0.0,0.0,-1.0316877993347653e-06,3.0,-93.0,11.0,-0.3346501886844635,0.0,-0.11886897683143616,0.0,1500.0,-4.8,0.007504915783575617,0.0,0.0,0.0,0.027483288198709488,0.0,367.0,0.0,51.4594173,2.6649432348701416,0.0,15.565674999999999,-251.0,0.0,0.0,0.0,1500.0,0.4603981673717499,-8.919145765840806e-05,-0.08147093653678894,0.0,0.0,18.0,1500.0,0.0,0.01944662258028984,,,,,,,,,
6.900699000000001,0.08236772567033768,0.9683479070663452,15.626083,-1.5409183314653524e-05,0.11449359893082803,-9.690471649169922,0.0,-0.002682512393221259,0.0,0.23511625826358795,-2.7913066,1.643869400024414,11.0,0.0,0.0,9.447038332462893e-06,3.0,-92.0,11.0,-0.40672868490219116,0.0,0.060752950608730316,0.0,1500.0,-4.8,0.006806784082777886,0.0,0.0,0.0,0.025883609429001808,0.0,366.0,0.0,51.4594173,2.6649432348701416,0.0,15.665668,-249.0,0.0,0.0,0.0,1500.0,0.4648297429084778,0.0001698623765291591,-0.08159204572439194,0.0,0.0,18.0,1500.0,0.0,0.01911732368171215,,,,,,,,,
7.00066,0.077751025557518,0.9683069586753845,15.746020999999999,6.613444238403033e-06,0.11466813185602745,-9.688157081604004,0.0,-0.0029865324031561613,0.0,0.23525942862033844,-2.7913067,1.6491763591766357,11.0,0.0,0.0,4.765444976101778e-06,3.0,-92.0,11.0,-0.42732253670692444,0.0,-0.0009901602752506733,0.0,1500.0,-4.8500000000000005,0.007504915783575617,0.0,0.0,0.0,0.020999353379011154,0.0,365.0,0.0,51.459416999999995,2.6647687019449426,0.0,15.765628999999999,-249.0,0.0,0.0,0.0,1500.0,0.46958544850349426,-7.039164371355372e-05,-0.08156444877386093,0.0,0.0,18.0,1500.0,0.0,0.01954323798418045,,,,,,,,,
7.10064,0.07495962083339691,0.968294620513916,15.82602,1.279536218454357e-06,0.11466813185602745,-9.69774055480957,0.0,-0.004056207835674286,0.0,0.23529329895973206,-2.7913067,1.640655755996704,11.0,0.0,0.0,9.062105981025057e-06,3.0,-92.0,11.0,-0.4942525625228882,0.0,-0.002501764567568898,0.0,1500.0,-4.8500000000000005,0.00767944870877505,0.0,0.0,0.0,0.016776135191321373,0.0,365.0,0.0,51.459416999999995,2.6647687019449426,0.0,15.865609,-248.0,0.0,0.0,0.0,1500.0,0.4727046489715576,8.680307322022851e-05,-0.08160222321748734,0.0,0.0,18.0,1500.0,0.0,0.01958739012479782,,,,,,,,,
7.200673,0.07186421006917953,0.9682679176330566,15.94609,-5.048824399039821e-06,0.11484266478122689,-9.696599960327148,0.0,-0.004268201068043709,0.0,0.23537443578243256,-2.7913068,1.6371314525604248,11.0,0.0,0.0,8.561673453461912e-07,3.0,-93.0,11.0,-0.37583789229393005,0.0,0.018318211659789085,0.0,1500.0,-4.89,0.008028514559173916,0.0,0.0,0.0,0.01326704490929842,0.0,364.0,0.0,51.4594168,2.664594169019743,0.0,15.965641999999999,-248.0,0.0,0.0,0.0,1500.0,0.4786997437477112,2.174377809658758e-06,-0.08162567019462585,0.0,0.0,18.0,1500.0,0.0,0.019834786653518677,,,,,,,,,
7.300562000000001,0.06965744495391846,0.9682522416114807,16.02647,-1.557064680216064e-05,0.11501719770642631,-9.697029113769531,0.0,-0.0044119758531451225,0.0,0.23542910814285278,-2.7913068,1.6455769538879395,11.0,0.0,0.0,1.503115410790223e-05,3.0,-93.0,11.0,-0.4118771553039551,0.0,0.010897953994572163,0.0,1500.0,-4.89,0.00820304748437335,0.0,0.0,0.0,0.009430397301912308,0.0,366.0,0.0,51.4594168,2.6644196360945434,0.0,16.065531,-250.0,0.0,0.0,0.0,1500.0,0.48230111598968506,3.263684288407876e-05,-0.08163744956254959,0.0,0.0,18.0,1500.0,0.0,0.019902871921658516,,,,,,,,,
7.400658000000002,0.06520994752645493,0.9682126641273499,16.146236,1.7787712358189348e-05,0.11519173063162576,-9.706486701965332,0.0,-0.004732208792120218,0.0,0.2355652153491974,-2.7913068,1.6382769346237183,11.0,0.0,0.0,5.286366230118492e-06,3.0,-94.0,11.0,-0.3397986590862274,0.0,0.0003882306918967515,0.0,1500.0,-4.96,0.008377580409572781,0.0,0.0,0.0,0.005637312773615122,0.0,367.0,0.0,51.4594163,2.6642451031693444,0.0,16.165627,-252.0,0.0,0.0,0.0,1500.0,0.4857572615146637,-1.695515552012508e-05,-0.08168011903762817,0.0,0.0,18.0,1500.0,0.0,0.020041372627019882,,,,,,,,,
7.500688000000002,0.06151437759399414,0.9681908488273621,16.225967999999998,-2.1338646300587195e-06,0.11519173063162576,-9.690560340881348,0.0,-0.004561546258628368,0.0,0.2356419414281845,-2.7913068,1.6405540704727173,11.0,0.0,0.0,1.889951587561773e-05,3.0,-95.0,11.0,-0.4942525625228882,0.0,0.023258665576577187,0.0,1500.0,-4.96,0.008377580409572781,0.0,0.0,0.0,0.0022993169259279966,0.0,367.0,0.0,51.4594163,2.664070570244145,0.0,16.265657,-252.0,0.0,0.0,0.0,1500.0,0.486383318901062,7.387546120948852e-05,-0.08170972019433975,0.0,0.0,18.0,1500.0,0.0,0.02007036842405796,,,,,,,,,
7.600641000000001,0.05618969723582268,0.9681476950645447,16.346068,-1.4541989859231941e-06,0.1153662635568252,-9.697270393371582,0.0,-0.004737746901810169,0.0,0.23579451441764832,-2.7913069,1.6469064950942993,11.0,0.0,0.0,6.734035420239957e-06,3.0,-94.0,11.0,-0.4479163885116577,0.0,0.012587545439600945,0.0,1500.0,-5.01,0.008726646259971648,0.0,0.0,0.0,-0.0015931592788547277,0.0,368.0,0.0,51.459415899999996,2.6637215043937457,0.0,16.36561,-253.0,0.0,0.0,0.0,1500.0,0.48712676763534546,-3.6943379093994764e-05,-0.08173608034849167,0.0,0.0,18.0,1500.0,0.0,0.020253146067261696,,,,,,,,,
7.700643999999999,0.05334103852510452,0.9681259989738464,16.425981999999998,-6.689051959196658e-07,0.1153662635568252,-9.698465347290039,0.0,-0.005640971940010786,0.0,0.23588046431541443,-2.7913069,1.6374516487121582,11.0,0.0,0.0,1.3674849231407664e-05,3.0,-94.0,11.0,-0.43761947751045227,0.0,-0.00600116141140461,0.0,1500.0,-5.01,0.00890117918517108,0.0,0.0,0.0,-0.004331552889198065,0.0,368.0,0.0,51.459415899999996,2.6635469714685467,0.0,16.465612999999998,-252.0,0.0,0.0,0.0,1500.0,0.48852550983428955,-6.603379819179575e-07,-0.08173754811286926,0.0,0.0,18.0,1500.0,0.0,0.020288929343223572,,,,,,,,,
7.8007089999999994,0.04896567761898041,0.9680817127227783,16.546865,-4.0354725380736615e-07,0.1153662635568252,-9.70576286315918,0.0,-0.006452939473092556,0.0,0.23604531586170197,-2.7913069,1.6610336303710938,11.0,0.0,0.0,-6.593751227633899e-06,3.0,-95.0,11.0,-0.31920477747917175,0.0,0.005760831758379936,0.0,1500.0,-5.0600000000000005,0.00890117918517108,0.0,0.0,0.0,-0.008428195491433144,0.0,364.0,0.0,51.4594155,2.6631979056181474,0.0,16.565678,-252.0,0.0,0.0,0.0,1500.0,0.4903659224510193,6.266848061598526e-05,-0.08176945149898529,0.0,0.0,18.0,1500.0,0.0,0.02035224810242653,,,,,,,,,
7.900679000000002,0.0449095256626606,0.9680579900741577,16.62622,-7.499702868918067e-06,0.1153662635568252,-9.69278621673584,0.0,-0.006628010887652636,0.0,0.23614229261875153,-2.7913069,1.6493496894836426,11.0,0.0,0.0,-1.2554136898446912e-06,3.0,-92.0,11.0,-0.4942525625228882,0.0,0.023305905982851982,0.0,1500.0,-5.0600000000000005,0.00890117918517108,0.0,0.0,0.0,-0.011067647486925125,0.0,365.0,0.0,51.4594155,2.6630233726929484,0.0,16.665648,-249.0,0.0,0.0,0.0,1500.0,0.4896407127380371,9.237818900173435e-05,-0.08175982534885406,0.0,0.0,18.0,1500.0,0.0,0.020395008847117424,,,,,,,,,
8.000655,0.0394594706594944,0.9680166244506836,16.745884999999998,1.8958783360219374e-06,0.11554079648202462,-9.688677787780762,0.0,-0.0058678253553807735,0.0,0.23629792034626007,-2.7913069,1.6531331539154053,11.0,0.0,0.0,-1.0141030351127202e-07,3.0,-92.0,11.0,-0.45821332931518555,0.0,0.0033134878613054752,0.0,1500.0,-5.08,0.00942477796076938,0.0,0.0,0.0,-0.013634711503982544,0.0,366.0,0.0,51.459415199999995,2.6628488397677486,0.0,16.765624,-248.0,0.0,0.0,0.0,1500.0,0.4878546893596649,-2.976625829683543e-05,-0.08174819499254227,0.0,0.0,18.0,1500.0,0.0,0.020601926371455193,,,,,,,,,
8.100693000000001,0.03632872924208641,0.9679961204528809,16.826257,-1.7443837209012276e-05,0.11554079648202462,-9.688285827636719,0.0,-0.006230548024177551,0.0,0.23637251555919647,-2.7913069,1.6475105285644531,11.0,0.0,0.0,9.39661540674882e-06,3.0,-92.0,11.0,-0.4221740663051605,0.0,0.03369677811861038,0.0,1500.0,-5.08,0.009250245035569947,0.0,0.0,0.0,-0.016001487150788307,0.0,363.0,0.0,51.459415199999995,2.662674306842549,0.0,16.865662,-249.0,0.0,0.0,0.0,1500.0,0.4876936972141266,3.864502051387267e-06,-0.08178064227104187,0.0,0.0,18.0,1500.0,0.0,0.020581621676683426,,,,,,,,,
8.200674000000001,0.03193764016032219,0.9679559469223022,16.945664999999998,-1.02311471842201e-05,0.11554079648202462,-9.695757865905762,0.0,-0.006602894514799118,0.0,0.2365272492170334,-2.7913068,1.651369571685791,11.0,0.0,0.0,2.013286147163456e-06,3.0,-93.0,11.0,-0.4221740663051605,0.0,-0.0004602052504196763,0.0,1500.0,-5.1000000000000005,0.00942477796076938,0.0,0.0,0.0,-0.019951455295085907,0.0,364.0,0.0,51.4594148,2.6623252409921503,0.0,16.965643,-247.0,0.0,0.0,0.0,1500.0,0.48706990480422974,8.579257677978937e-06,-0.08178422600030899,0.0,0.0,18.0,1500.0,0.0,0.02067464590072632,,,,,,,,,
8.300647,0.02879980020225048,0.9679350256919861,17.026498999999998,-1.7163267807884828e-05,0.11571532940722405,-9.682089805603027,0.0,-0.006936132442206144,0.0,0.23660889267921448,-2.7913068,1.6485555171966553,11.0,0.0,0.0,9.689601325074051e-06,3.0,-94.0,11.0,-0.39643174409866333,0.0,0.004561745095998049,0.0,1500.0,-5.1000000000000005,0.009599310885968814,0.0,0.0,0.0,-0.022694233804941177,0.0,366.0,0.0,51.4594148,2.662150708066951,0.0,17.065616,-250.0,0.0,0.0,0.0,1500.0,0.48600560426712036,5.871730955766057e-05,-0.08178244531154633,0.0,0.0,18.0,1500.0,0.0,0.020732443779706955,,,,,,,,,
8.400646,0.023849157616496086,0.9678995013237,17.145730999999998,2.566538906647307e-06,0.11571532940722405,-9.689179420471191,0.0,-0.00724472850561142,0.0,0.23674128949642181,-2.7913068,1.6570210456848145,11.0,0.0,0.0,-6.586922244766653e-06,3.0,-94.0,11.0,-0.31920477747917175,0.0,0.003165061818435788,0.0,1500.0,-5.13,0.009773843811168246,0.0,0.0,0.0,-0.024076199159026146,0.0,367.0,0.0,51.4594144,2.661801642216552,0.0,17.165615,-254.0,0.0,0.0,0.0,1500.0,0.48318716883659363,1.718157663401299e-05,-0.08177606761455536,0.0,0.0,18.0,1500.0,0.0,0.020898079499602318,,,,,,,,,
8.500629000000002,0.019954746589064598,0.9678831100463867,17.225970999999998,4.469505537925194e-07,0.11571532940722405,-9.693636894226074,0.0,-0.007201262749731541,0.0,0.236805260181427,-2.7913068,1.6462244987487793,11.0,0.0,0.0,9.408393929117586e-06,3.0,-94.0,11.0,-0.37068942189216614,0.0,-0.00561909843236208,0.0,1500.0,-5.13,0.009948376736367679,0.0,0.0,0.0,-0.025988943874835968,0.0,368.0,0.0,51.4594144,2.661801642216552,0.0,17.265598,-253.0,0.0,0.0,0.0,1500.0,0.47939714789390564,3.197887719145237e-05,-0.08177363127470016,0.0,0.0,18.0,1500.0,0.0,0.02094367705285549,,,,,,,,,
8.60065,0.013491423800587654,0.9678456783294678,17.345745,-2.955737188159207e-05,0.11571532940722405,-9.680793762207031,0.0,-0.007222465705126524,0.0,0.23694759607315063,-2.7913068,1.6484339237213135,11.0,0.0,0.0,2.438392108501335e-06,3.0,-93.0,11.0,-0.4788071811199188,0.0,0.026095464825630188,0.0,1500.0,-5.16,0.010122909661567111,0.0,0.0,0.0,-0.029499247670173645,0.0,370.0,0.0,51.4594142,2.661452576366153,0.0,17.365619,-253.0,0.0,0.0,0.0,1500.0,0.47149458527565,8.135665359308486e-05,-0.08177478611469269,0.0,0.0,18.0,1500.0,0.0,0.021058950573205948,,,,,,,,,
8.700655,0.010285983793437481,0.9678174257278442,17.426040999999998,1.9986945552380987e-06,0.11588986233242349,-9.699243545532227,0.0,-0.007101180497556925,0.0,0.237056165933609,-2.7913068,1.6440787315368652,11.0,0.0,0.0,2.200136342922521e-06,3.0,-94.0,11.0,-0.39643174409866333,0.0,-0.005101597867906094,0.0,1500.0,-5.16,0.010471975511965976,0.0,0.0,0.0,-0.029961980879306793,0.0,368.0,0.0,51.4594142,2.6612780434409533,0.0,17.465624,-252.0,0.0,0.0,0.0,1500.0,0.4670838713645935,-1.344029774711116e-05,-0.0817507728934288,0.0,0.0,18.0,1500.0,0.0,0.02122984454035759,,,,,,,,,
8.800557,0.005621644668281078,0.9677883982658386,17.546288,-1.908312885716875e-06,0.11588986233242349,-9.711080551147461,0.0,-0.007029133383184671,0.0,0.2371688187122345,-2.7913068,1.6326789855957031,11.0,0.0,0.0,-2.894127853629162e-07,3.0,-93.0,11.0,-0.4736587107181549,0.0,-0.016607290133833885,0.0,1500.0,-5.2,0.010471975511965976,0.0,0.0,0.0,-0.030902199447155,0.0,367.0,0.0,51.4594138,2.6611035105157543,0.0,17.565526,-251.0,0.0,0.0,0.0,1500.0,0.46154454350471497,-6.0485940942542586e-05,-0.08175825327634811,0.0,0.0,18.0,1500.0,0.0,0.02126421220600605,,,,,,,,,
8.900689999999999,0.0025754240341484547,0.9677783846855164,17.62653,-1.888256431237422e-05,0.11588986233242349,-9.684606552124023,0.0,-0.007387071847915649,0.0,0.23721052706241608,-2.7913068,1.6499438285827637,11.0,0.0,0.0,1.1755447883811842e-05,3.0,-92.0,11.0,-0.48910412192344666,0.0,-0.012312851846218109,0.0,1500.0,-5.2,0.010471975511965976,0.0,0.0,0.0,-0.034403081983327866,0.0,364.0,0.0,51.4594138,2.660928977590555,0.0,17.665658999999998,-248.0,0.0,0.0,0.0,1500.0,0.4584207236766815,0.00014134745365705414,-0.08176835626363754,0.0,0.0,18.0,1500.0,0.0,0.021215157583355904,,,,,,,,,
9.000679,-0.001162414439022541,0.967749297618866,17.745680999999998,-6.560601402366172e-06,0.11588986233242349,-9.688693046569824,0.0,-0.006624249275773764,0.0,0.2373199760913849,-2.7913069,1.6499253511428833,11.0,0.0,0.0,1.4170211579523514e-05,3.0,-92.0,11.0,-0.5354402661323547,0.0,0.048993948847055435,0.0,1500.0,-5.24,0.01064650843716541,0.0,0.0,0.0,-0.03519539535045624,0.0,365.0,0.0,51.4594135,2.6607544446653555,0.0,17.765648,-249.0,0.0,0.0,0.0,1500.0,0.45576491951942444,8.815318812460018e-06,-0.0817561149597168,0.0,0.0,18.0,1500.0,0.0,0.021366992965340614,,,,,,,,,
9.100690000000002,-0.002856925828382373,0.9677269458770752,17.825964,1.0609094101829435e-05,0.11588986233242349,-9.694133758544922,0.0,-0.007219370454549789,0.0,0.23740263283252716,-2.7913069,1.6469411849975586,11.0,0.0,0.0,1.0828685216934766e-05,3.0,-93.0,11.0,-0.5663310885429382,0.0,-0.028540126979351044,0.0,1500.0,-5.24,0.010995574287564275,0.0,0.0,0.0,-0.036250848323106766,0.0,365.0,0.0,51.4594135,2.660579911740156,0.0,17.865659,-248.0,0.0,0.0,0.0,1500.0,0.4556301534175873,-3.282035986163083e-05,-0.08173452317714691,0.0,0.0,18.0,1500.0,0.0,0.02154408022761345,,,,,,,,,
9.200654000000002,-0.004224033560603857,0.9677063822746277,17.945695,-6.176631630706186e-06,0.11588986233242349,-9.692861557006836,0.0,-0.0070490906946361065,0.0,0.23748129606246948,-2.7913069,1.646660566329956,11.0,0.0,0.0,6.221550327147017e-06,3.0,-92.0,11.0,-0.19049318134784698,0.0,-0.005656088702380657,0.0,1500.0,-5.28,0.010995574287564275,0.0,0.0,0.0,-0.03731853514909744,0.0,365.0,0.0,51.459413299999994,2.6604053788149566,0.0,17.965623,-248.0,0.0,0.0,0.0,1500.0,0.45820486545562744,5.7512503055173446e-05,-0.0817585289478302,0.0,0.0,18.0,1500.0,0.0,0.021507343277335167,,,,,,,,,
9.300659000000001,-0.007041524164378643,0.9676879644393921,18.026529999999998,-1.826449971035984e-05,0.11588986233242349,-9.683379173278809,0.0,-0.00706535205245018,0.0,0.23755709826946259,-2.7913069,1.6535916328430176,11.0,0.0,0.0,8.99851374485158e-06,3.0,-93.0,11.0,-0.48395565152168274,0.0,0.03055793046951294,0.0,1500.0,-5.28,0.010995574287564275,0.0,0.0,0.0,-0.03848716989159584,0.0,366.0,0.0,51.459413299999994,2.6602308458897572,0.0,18.065628,-251.0,0.0,0.0,0.0,1500.0,0.45706045627593994,8.606494977601159e-05,-0.08174870163202286,0.0,0.0,18.0,1500.0,0.0,0.021535877138376236,,,,,,,,,
9.400671,-0.011292099952697754,0.9676398038864136,18.145649,-9.585614263436808e-06,0.11606439525762292,-9.686113357543945,0.0,-0.007403572089970112,0.0,0.23774519562721252,-2.7913069999999998,1.6466749906539917,11.0,0.0,0.0,-1.7858178785462382e-07,3.0,-94.0,11.0,-0.40158021450042725,0.0,-0.022241588681936264,0.0,1500.0,-5.33,0.011519173063162575,0.0,0.0,0.0,-0.0398729033768177,0.0,369.0,0.0,51.4594131,2.6598817800393584,0.0,18.16564,-253.0,0.0,0.0,0.0,1500.0,0.45185723900794983,1.3512498849814992e-05,-0.08170008659362793,0.0,0.0,18.0,1500.0,0.0,0.021805470809340477,,,,,,,,,
9.500656000000001,-0.014048073440790176,0.9676163792610168,18.226005,-1.6886540852524952e-06,0.11606439525762292,-9.68171501159668,0.0,-0.007486235350370407,0.0,0.23784220218658447,-2.7913069999999998,1.6458394527435303,11.0,0.0,0.0,6.242975473558618e-06,3.0,-94.0,11.0,-0.43247100710868835,0.0,-0.015766076743602753,0.0,1500.0,-5.33,0.011519173063162575,0.0,0.0,0.0,-0.03998851776123047,0.0,369.0,0.0,51.4594131,2.659707247114159,0.0,18.265625,-252.0,0.0,0.0,0.0,1500.0,0.44870516657829285,-1.3594439532814612e-05,-0.08169213682413101,0.0,0.0,18.0,1500.0,0.0,0.021821845322847366,,,,,,,,,
9.600693999999999,-0.018121611326932907,0.9675832390785217,18.34583,-6.147817732078953e-06,0.11606439525762292,-9.689738273620605,0.0,-0.007885230705142021,0.0,0.23797714710235596,-2.7913071,1.655380368232727,11.0,0.0,0.0,1.7900608997295462e-05,3.0,-94.0,11.0,-0.3655409812927246,0.0,0.004279668442904949,0.0,1500.0,-5.38,0.011519173063162575,0.0,0.0,0.0,-0.04233900457620621,0.0,367.0,0.0,51.459412699999994,2.659532714188959,0.0,18.365662999999998,-251.0,0.0,0.0,0.0,1500.0,0.44354256987571716,0.00010756389634104982,-0.08168840408325195,0.0,0.0,18.0,1500.0,0.0,0.021829595789313316,,,,,,,,,
9.700677,-0.021158389747142792,0.9675572514533997,18.425967,-1.2322303241644546e-05,0.11606439525762292,-9.6832914352417,0.0,-0.006952357478439808,0.0,0.23807770013809204,-2.7913071,1.654672622680664,11.0,0.0,0.0,9.205487191523231e-06,3.0,-94.0,11.0,-0.504549503326416,0.0,0.006482402328401804,0.0,1500.0,-5.38,0.011693705988362009,0.0,0.0,0.0,-0.041826359927654266,0.0,367.0,0.0,51.459412699999994,2.65935818126376,0.0,18.465646,-253.0,0.0,0.0,0.0,1500.0,0.4394463002681732,3.261116663995696e-05,-0.08167295157909393,0.0,0.0,18.0,1500.0,0.0,0.021943844854831696,,,,,,,,,
9.80073,-0.024992093443870544,0.9675100445747375,18.546286,-1.5718714430089135e-05,0.11606439525762292,-9.700743675231934,0.0,-0.006696114782243967,0.0,0.23827208578586578,-2.7913071,1.6250433921813965,11.0,0.0,0.0,6.8686655360611815e-06,3.0,-93.0,11.0,-0.43761947751045227,0.0,0.007024915423244238,0.0,1500.0,-5.41,0.011868238913561441,0.0,0.0,0.0,-0.041364509612321854,0.0,366.0,0.0,51.4594125,2.658834582488162,0.0,18.565699,-251.0,0.0,0.0,0.0,1500.0,0.433973103761673,-8.651971500452303e-08,-0.08164837956428528,0.0,0.0,18.0,1500.0,0.0,0.022007005289196968,,,,,,,,,
9.900713999999999,-0.027207164093852043,0.9674757122993469,18.62643,-7.254759078724437e-06,0.11588986233242349,-9.68702507019043,0.0,-0.006770242005586624,0.0,0.23841536045074463,-2.7913071,1.655948519706726,11.0,0.0,0.0,-3.8037363456485402e-06,3.0,-92.0,11.0,-0.5302918553352356,0.0,-0.04735127091407776,0.0,1500.0,-5.41,0.011868238913561441,0.0,0.0,0.0,-0.042104750871658325,0.0,364.0,0.0,51.4594125,2.6586600495629624,0.0,18.665682999999998,-248.0,0.0,0.0,0.0,1500.0,0.43126270174980164,-6.796064670673884e-06,-0.08162977546453476,0.0,0.0,18.0,1500.0,0.0,0.022037159651517868,,,,,,,,,
10.000683,-0.029333634302020073,0.967441737651825,18.745648,-2.6393785121378187e-06,0.11588986233242349,-9.703495979309082,0.0,-0.006624218542128801,0.0,0.23856745660305023,-2.7913072999999997,1.6239748001098633,11.0,0.0,0.0,-9.568141535627562e-06,3.0,-91.0,11.0,-0.5714795589447021,0.0,0.018901292234659195,0.0,1500.0,-5.46,0.011519173063162575,0.0,0.0,0.0,-0.04034723341464996,0.0,364.0,0.0,51.4594124,2.6583109837125636,0.0,18.765652,-248.0,0.0,0.0,0.0,1500.0,0.42873120307922363,3.644695409844078e-05,-0.08163022994995117,0.0,0.0,18.0,1500.0,0.0,0.021878641098737717,,,,,,,,,
10.100658999999998,-0.029955696314573288,0.9674162864685059,18.826014,-9.017062326998289e-06,0.11588986233242349,-9.694021224975586,0.0,-0.005935863126069307,0.0,0.23867957293987274,-2.7913072999999997,1.6333121061325073,11.0,0.0,0.0,4.198166743511786e-06,3.0,-92.0,11.0,-0.504549503326416,0.0,-0.004993050824850798,0.0,1500.0,-5.46,0.011344640137963142,0.0,0.0,0.0,-0.040187593549489975,0.0,364.0,0.0,51.4594124,2.6579619178621643,0.0,18.865627999999997,-248.0,0.0,0.0,0.0,1500.0,0.42917853593826294,2.4510603187228223e-06,-0.08161957561969757,0.0,0.0,18.0,1500.0,0.0,0.021820155903697014,,,,,,,,,
10.200655,-0.030277878046035767,0.9673806428909302,18.945679,-1.637057396360759e-06,0.11571532940722405,-9.6926851272583,0.0,-0.005338808987289667,0.0,0.23883919417858124,-2.7913074,1.6508336067199707,11.0,0.0,0.0,-5.376073458848137e-07,3.0,-92.0,11.0,-0.4479163885116577,0.0,0.015110082924365997,0.0,1500.0,-5.5,0.01117010721276371,0.0,0.0,0.0,-0.03823088854551315,0.0,365.0,0.0,51.459412199999996,2.657612852011766,0.0,18.965624,-249.0,0.0,0.0,0.0,1500.0,0.43147003650665283,4.089305320107653e-06,-0.08161023259162903,0.0,0.0,18.0,1500.0,0.0,0.021689286455512047,,,,,,,,,
10.300524000000001,-0.03072369657456875,0.9673658013343811,19.026471,3.7058302992147526e-06,0.11571532940722405,-9.6923828125,0.0,-0.005526828579604626,0.0,0.23891033232212067,-2.7913074,1.6462030410766602,11.0,0.0,0.0,3.2449377043628008e-06,3.0,-94.0,11.0,-0.504549503326416,0.0,0.0019809214863926172,0.0,1500.0,-5.5,0.010995574287564275,0.0,0.0,0.0,-0.0353248231112957,0.0,365.0,0.0,51.459412199999996,2.657438319086566,0.0,19.065493,-251.0,0.0,0.0,0.0,1500.0,0.4324454963207245,-4.435879299162139e-05,-0.08160459250211716,0.0,0.0,18.0,1500.0,0.0,0.02158878557384014,,,,,,,,,
10.400656,-0.03157610073685646,0.9673484563827515,19.145729,-6.910088467841764e-06,0.11554079648202462,-9.694549560546875,0.0,-0.005572800990194082,0.0,0.2390056699514389,-2.7913074,1.6433879137039185,11.0,0.0,0.0,-2.8935397021461646e-06,3.0,-94.0,11.0,-0.5354402661323547,0.0,-0.02047460526227951,0.0,1500.0,-5.55,0.010471975511965976,0.0,0.0,0.0,-0.03221748769283295,0.0,366.0,0.0,51.459412,2.6572637861613666,0.0,19.165625,-253.0,0.0,0.0,0.0,1500.0,0.43344077467918396,-4.021170164544618e-06,-0.08159808814525604,0.0,0.0,18.0,1500.0,0.0,0.021331030875444412,,,,,,,,,
10.500697,-0.031888533383607864,0.9673416018486023,19.225975,-1.1449484663025113e-05,0.11554079648202462,-9.708281517028809,0.0,-0.004651921801269054,0.0,0.23904915153980255,-2.7913074,1.6432818174362183,11.0,0.0,0.0,7.387077987163486e-06,3.0,-94.0,11.0,-0.3603925108909607,0.0,0.021494701504707336,0.0,1500.0,-5.55,0.009948376736367679,0.0,0.0,0.0,-0.02885894663631916,0.0,367.0,0.0,51.459412,2.6570892532361676,0.0,19.265666,-252.0,0.0,0.0,0.0,1500.0,0.43474140763282776,-4.079739613721078e-05,-0.0816178172826767,0.0,0.0,18.0,1500.0,0.0,0.02107875794172287,,,,,,,,,
10.600646,-0.03335510939359665,0.9673212766647339,19.345644,1.0775676786698653e-05,0.1153662635568252,-9.693093299865723,0.0,-0.0038852824363857508,0.0,0.2391483634710312,-2.7913074,1.6484674215316772,11.0,0.0,0.0,1.4636432396317297e-05,3.0,-94.0,11.0,-0.4994010329246521,0.0,-0.026292061433196068,0.0,1500.0,-5.59,0.00942477796076938,0.0,0.0,0.0,-0.02602129988372326,0.0,368.0,0.0,51.4594119,2.6569147203109678,0.0,19.365615,-252.0,0.0,0.0,0.0,1500.0,0.43476009368896484,1.865616123098347e-06,-0.08162523061037064,0.0,0.0,18.0,1500.0,0.0,0.02085684798657894,,,,,,,,,
10.700667999999999,-0.03461979702115059,0.9673194885253906,19.425995,8.474168856163248e-06,0.1153662635568252,-9.698848724365234,0.0,-0.00347583694383502,0.0,0.23916971683502197,-2.7913074,1.6317963600158691,11.0,0.0,0.0,5.173872401441845e-06,3.0,-95.0,11.0,-0.6178157329559326,0.0,-0.002636985620483756,0.0,1500.0,-5.59,0.009075712110370514,0.0,0.0,0.0,-0.02236119657754898,0.0,366.0,0.0,51.4594119,2.6567401873857683,0.0,19.465636999999997,-253.0,0.0,0.0,0.0,1500.0,0.4336627721786499,8.69219952531736e-07,-0.08163949102163315,0.0,0.0,18.0,1500.0,0.0,0.0206402949988842,,,,,,,,,
10.800673000000002,-0.03476011008024216,0.9673102498054504,19.546198,1.1899190760168503e-05,0.11519173063162576,-9.697587013244629,0.0,-0.0019497310277074575,0.0,0.23923178017139435,-2.7913074,1.6380597352981567,11.0,0.0,0.0,5.160624357544149e-06,3.0,-94.0,11.0,-0.5302918553352356,0.0,0.01271212287247181,0.0,1500.0,-5.62,0.008377580409572781,0.0,0.0,0.0,-0.017876289784908295,0.0,366.0,0.0,51.4594118,2.6565656544605694,0.0,19.565642,-251.0,0.0,0.0,0.0,1500.0,0.4349965751171112,-1.1431612680490066e-05,-0.0816335454583168,0.0,0.0,18.0,1500.0,0.0,0.020370349287986755,,,,,,,,,
10.900663,-0.03409779816865921,0.9673013091087341,19.62641,-7.318183180910332e-06,0.11501719770642631,-9.691804885864258,0.0,-0.0015995014691725373,0.0,0.2392805963754654,-2.7913074,1.6353412866592407,11.0,0.0,0.0,2.836339605246819e-06,3.0,-93.0,11.0,-0.6023703217506409,0.0,-0.006304170470684767,0.0,1500.0,-5.62,0.00820304748437335,0.0,0.0,0.0,-0.015779947862029076,0.0,364.0,0.0,51.4594118,2.6565656544605694,0.0,19.665632,-248.0,0.0,0.0,0.0,1500.0,0.4374573230743408,5.3402463157101675e-05,-0.08162830024957657,0.0,0.0,18.0,1500.0,0.0,0.020242292433977127,,,,,,,,,
11.000652,-0.032629773020744324,0.9672832489013672,19.745787999999997,-1.3834204694599168e-05,0.11501719770642631,-9.673026084899902,0.0,-0.0004206555022392422,0.0,0.2393735647201538,-2.7913075,1.6521320343017578,11.0,0.0,0.0,3.2045606574173608e-06,3.0,-93.0,11.0,-0.5148464441299438,0.0,0.021690044552087784,0.0,1500.0,-5.64,0.008028514559173916,0.0,0.0,0.0,-0.011556909419596195,0.0,366.0,0.0,51.4594117,2.65621658861017,0.0,19.765621,-249.0,0.0,0.0,0.0,1500.0,0.442740261554718,7.075175725341065e-05,-0.0816015675663948,0.0,0.0,19.0,1500.0,0.0,0.020115558058023453,,,,,,,,,
11.100671,-0.03125390037894249,0.9672753214836121,19.825965999999998,5.740871003336477e-06,0.11484266478122689,-9.68858814239502,0.0,-3.109485260210931e-05,0.0,0.23941850662231445,-2.7913075,1.6553711891174316,11.0,0.0,0.0,-1.6245950359835852e-06,3.0,-92.0,11.0,-0.4788071811199188,0.0,0.0197687279433012,0.0,1500.0,-5.64,0.007853981633974483,0.0,0.0,0.0,-0.007805887144058943,0.0,364.0,0.0,51.4594117,2.65621658861017,0.0,19.86564,-249.0,0.0,0.0,0.0,1500.0,0.4467299282550812,9.479703058159198e-06,-0.08157258480787277,0.0,0.0,19.0,1500.0,0.0,0.02007818967103958,,,,,,,,,
11.200681999999999,-0.030170179903507233,0.9672645330429077,19.945838,9.221052030337434e-07,0.11484266478122689,-9.693549156188965,0.0,0.00011961910786340013,0.0,0.23948010802268982,-2.7913075,1.635385513305664,11.0,0.0,0.0,-1.625091488408853e-05,3.0,-92.0,11.0,-0.4118771553039551,0.0,-0.009981079958379269,0.0,1500.0,-5.67,0.00767944870877505,0.0,0.0,0.0,-0.0026244092732667923,0.0,364.0,0.0,51.459411599999996,2.6560420556849706,0.0,19.965650999999998,-249.0,0.0,0.0,0.0,1500.0,0.45113426446914673,-7.39695918605667e-05,-0.08155203610658646,0.0,0.0,19.0,1500.0,0.0,0.01994633674621582,,,,,,,,,
11.300669999999998,-0.031655993312597275,0.967246413230896,20.026612999999998,-0.00013150331535521218,0.11484266478122689,-9.67045783996582,0.0,0.0011895158095285296,0.0,0.239562526345253,-2.7913075,1.6648280620574951,11.0,0.0,0.0,6.725852425417123e-05,3.0,-93.0,11.0,-0.4942525625228882,0.0,-0.028954215347766876,0.0,1500.0,-5.67,0.007330382858376184,0.0,0.0,0.0,-0.008371607400476933,0.0,366.0,0.0,51.459411599999996,2.6558675227597717,0.0,20.065638999999997,-250.0,0.0,0.0,0.0,1500.0,0.4520396292209625,0.0007754613398075905,-0.08155401796102524,0.0,0.0,19.0,1500.0,0.0,0.01982862316071987,,,,,,,,,
11.400975,-0.03206818923354149,0.9672160744667053,20.145823,7.029934983739728e-05,0.11466813185602745,-9.765156745910645,0.0,0.006584073416888714,0.0,0.23968929052352905,-2.7913077,1.5861940383911133,11.0,0.0,0.0,7.405878008355068e-06,3.0,-94.0,11.0,-0.42732253670692444,0.0,0.2849358916282654,0.0,1500.0,-5.69,0.00767944870877505,0.0,0.0,0.0,0.012109971605241299,0.0,367.0,0.0,51.459411599999996,2.655692989834572,0.0,20.165944,-253.0,0.0,0.0,0.0,1500.0,0.4517238736152649,-0.0008122332486480498,-0.08151256293058395,0.0,0.0,19.0,1500.0,0.0,0.019948523491621017,,,,,,,,,
11.500691000000002,-0.032190773636102676,0.9672123789787292,20.225924,-2.2153395158782384e-05,0.11466813185602745,-9.720603942871094,0.0,-0.0038845364470034838,0.0,0.23970724642276764,-2.7913077,1.6413860321044922,11.0,0.0,0.0,1.3335845396251486e-05,3.0,-94.0,11.0,-0.6487064957618713,0.0,-0.35434168577194214,0.0,1500.0,-5.69,0.007853981633974483,0.0,0.0,0.0,-0.0051022176630795,0.0,367.0,0.0,51.459411599999996,2.655692989834572,0.0,20.26566,-252.0,0.0,0.0,0.0,1500.0,0.45070138573646545,0.00039863978005805304,-0.08147686719894409,0.0,0.0,19.0,1500.0,0.0,0.02005906030535698,,,,,,,,,
11.600653,-0.03275252506136894,0.9672478437423706,20.345651999999998,-3.593658261719778e-07,0.11466813185602745,-9.688268661499023,0.0,0.001817085430957377,0.0,0.2395804077386856,-2.791308,1.6392724514007568,11.0,0.0,0.0,-2.8437093090499603e-06,3.0,-94.0,11.0,-0.7053396105766296,0.0,0.21259218454360962,0.0,1500.0,-5.7,0.007155849933176752,0.0,0.0,0.0,0.009462174959480762,0.0,368.0,0.0,51.459411599999996,2.6558675227597717,0.0,20.365622,-253.0,0.0,0.0,0.0,1500.0,0.4513251483440399,4.569601389858885e-05,-0.08152049034833908,0.0,0.0,19.0,1500.0,0.0,0.019681507721543312,,,,,,,,,
11.700546000000001,-0.031447868794202805,0.9672354459762573,20.426012,2.2158726682449048e-05,0.11449359893082803,-9.681368827819824,0.0,0.0015376994851976633,0.0,0.23963965475559235,-2.791308,1.6669944524765015,11.0,0.0,0.0,1.3943371908518481e-05,3.0,-94.0,11.0,-0.5560341477394104,0.0,-0.04798224940896034,0.0,1500.0,-5.7,0.008028514559173916,0.0,0.0,0.0,0.008933918550610542,0.0,368.0,0.0,51.459411599999996,2.655692989834572,0.0,20.465515,-252.0,0.0,0.0,0.0,1500.0,0.4559899866580963,-0.00017003851186590287,-0.08139321208000183,0.0,0.0,19.0,1500.0,0.0,0.02009190246462822,,,,,,,,,
11.80071,-0.027507083490490913,0.9672605395317078,20.546257,-2.419541342338878e-05,0.11449359893082803,-9.700859069824219,0.0,0.0006995071889832616,0.0,0.23954683542251587,-2.7913082,1.6501171588897705,11.0,0.0,0.0,1.1573729076398874e-05,3.0,-93.0,11.0,-0.48910412192344666,0.0,-0.03951787203550339,0.0,1500.0,-5.74,0.00767944870877505,0.0,0.0,0.0,0.010246139019727707,0.0,366.0,0.0,51.459411599999996,2.6558675227597717,0.0,20.565679,-250.0,0.0,0.0,0.0,1500.0,0.46541985869407654,0.00016191856881228516,-0.08140496164560318,0.0,0.0,19.0,1500.0,0.0,0.019942643120884895,,,,,,,,,
11.900711,-0.025309009477496147,0.9672755599021912,20.626461,5.247034750534653e-07,0.11449359893082803,-9.698596000671387,0.0,0.002453265944495797,0.0,0.23949241638183594,-2.7913082,1.6406848430633545,11.0,0.0,0.0,1.529204268924454e-06,3.0,-91.0,11.0,-0.5560341477394104,0.0,0.08990377187728882,0.0,1500.0,-5.74,0.007504915783575617,0.0,0.0,0.0,0.0157388336956501,0.0,364.0,0.0,51.459411599999996,2.6560420556849706,0.0,20.66568,-248.0,0.0,0.0,0.0,1500.0,0.47037214040756226,-2.22905071557617e-05,-0.08140650391578674,0.0,0.0,19.0,1500.0,0.0,0.019857879728078842,,,,,,,,,
12.000679,-0.02341018244624138,0.9672863483428955,20.745889,-1.4299335942198497e-06,0.11449359893082803,-9.684309005737305,0.0,0.0011844359105452895,0.0,0.2394534945487976,-2.7913083,1.6747145652770996,11.0,0.0,0.0,8.029779043956529e-06,3.0,-91.0,11.0,-0.5508856773376465,0.0,-0.06392104923725128,0.0,1500.0,-5.75,0.00767944870877505,0.0,0.0,0.0,0.015220314264297485,0.0,365.0,0.0,51.4594117,2.6560420556849706,0.0,20.765648,-249.0,0.0,0.0,0.0,1500.0,0.47650396823883057,-5.178151335232168e-05,-0.08137115091085434,0.0,0.0,19.0,1500.0,0.0,0.0199513491243124,,,,,,,,,
12.100677,-0.022516516968607903,0.9673008322715759,20.825957,-2.204565936956702e-05,0.11449359893082803,-9.683394432067871,0.0,0.00030454379157163203,0.0,0.23939982056617737,-2.7913083,1.6434290409088135,11.0,0.0,0.0,1.369634295210423e-05,3.0,-92.0,11.0,-0.5766280293464661,0.0,-0.029804788529872894,0.0,1500.0,-5.75,0.007504915783575617,0.0,0.0,0.0,0.014725754037499428,0.0,365.0,0.0,51.4594117,2.65621658861017,0.0,20.865645999999998,-248.0,0.0,0.0,0.0,1500.0,0.48055604100227356,0.00021648638844766973,-0.08138924092054367,0.0,0.0,19.0,1500.0,0.0,0.019816484302282333,,,,,,,,,
12.200655,-0.020231585949659348,0.9673104882240295,20.94569,-1.61461110265237e-05,0.11449359893082803,-9.67482852935791,0.0,0.0004509067803155631,0.0,0.23936258256435394,-2.7913083999999997,1.6449100971221924,11.0,0.0,0.0,1.6148199748447985e-05,3.0,-91.0,11.0,-0.6023703217506409,0.0,0.05630437657237053,0.0,1500.0,-5.7700000000000005,0.007853981633974483,0.0,0.0,0.0,0.01782573014497757,0.0,365.0,0.0,51.4594117,2.65639112153537,0.0,20.965624,-249.0,0.0,0.0,0.0,1500.0,0.48685353994369507,2.0926120672794513e-05,-0.08133923262357712,0.0,0.0,19.0,1500.0,0.0,0.020001240074634552,,,,,,,,,
12.300658,-0.017993593588471413,0.9673139452934265,21.026488999999998,3.853704966724717e-07,0.11449359893082803,-9.679384231567383,0.0,-0.0011110537452623248,0.0,0.2393421232700348,-2.7913083999999997,1.6503961086273193,11.0,0.0,0.0,2.2790722023464785e-06,3.0,-93.0,11.0,-0.5766280293464661,0.0,-0.07319527119398117,0.0,1500.0,-5.7700000000000005,0.00820304748437335,0.0,0.0,0.0,0.016699885949492455,0.0,366.0,0.0,51.4594117,2.65639112153537,0.0,21.065627,-251.0,0.0,0.0,0.0,1500.0,0.49180153012275696,-2.547646437160438e-05,-0.08130605518817902,0.0,0.0,19.0,1500.0,0.0,0.020209789276123047,,,,,,,,,
12.400659,-0.014231681823730469,0.9673555493354797,21.145659,7.258077058201442e-06,0.11449359893082803,-9.694697380065918,0.0,-0.0015314471675083041,0.0,0.23917846381664276,-2.7913085,1.6584711074829102,11.0,0.0,0.0,-7.753758911689466e-06,3.0,-94.0,11.0,-0.6075187921524048,0.0,-0.025446996092796326,0.0,1500.0,-5.8,0.007853981633974483,0.0,0.0,0.0,0.019991477951407433,0.0,366.0,0.0,51.4594117,2.6567401873857683,0.0,21.165627999999998,-253.0,0.0,0.0,0.0,1500.0,0.4998498260974884,-2.200092861746276e-05,-0.0813508927822113,0.0,0.0,19.0,1500.0,0.0,0.019976623356342316,,,,,,,,,
12.500628,-0.012325137853622437,0.9673965573310852,21.225979,1.3458606573239322e-05,0.11431906600562858,-9.68895149230957,0.0,-0.00048522473662160337,0.0,0.23902520537376404,-2.7913085,1.6440458297729492,11.0,0.0,0.0,-2.7240494675944033e-06,3.0,-94.0,11.0,-0.6281126737594604,0.0,0.05695931613445282,0.0,1500.0,-5.8,0.007155849933176752,0.0,0.0,0.0,0.021908337250351906,0.0,366.0,0.0,51.4594117,2.6569147203109678,0.0,21.265597,-253.0,0.0,0.0,0.0,1500.0,0.5055627226829529,-6.864864996801086e-05,-0.08138694614171982,0.0,0.0,19.0,1500.0,0.0,0.019672352820634842,,,,,,,,,
12.600672999999999,-0.008734513074159622,0.9674393534660339,21.345696,-9.924567302826345e-06,0.11431906600562858,-9.690896987915039,0.0,-0.0007039634510874748,0.0,0.23885856568813324,-2.7913087,1.6327686309814453,11.0,0.0,0.0,-8.925229676402957e-06,3.0,-95.0,11.0,-0.4994010329246521,0.0,0.023490333929657936,0.0,1500.0,-5.8500000000000005,0.006806784082777886,0.0,0.0,0.0,0.020061470568180084,0.0,368.0,0.0,51.4594117,2.6572637861613666,0.0,21.365641999999998,-254.0,0.0,0.0,0.0,1500.0,0.5153181552886963,-5.816073424708072e-05,-0.08143232762813568,0.0,0.0,19.0,1500.0,0.0,0.019405942410230637,,,,,,,,,
12.700654000000002,-0.007007097825407982,0.9674514532089233,21.425981,-1.5944563583644663e-05,0.11431906600562858,-9.67790412902832,0.0,-0.0016664068680256605,0.0,0.23881269991397858,-2.7913087,1.6416923999786377,11.0,0.0,0.0,1.1272600596681056e-05,3.0,-95.0,11.0,-0.669300377368927,0.0,-0.025864670053124428,0.0,1500.0,-5.8500000000000005,0.0066322511575784525,0.0,0.0,0.0,0.01792602241039276,0.0,365.0,0.0,51.4594117,2.657438319086566,0.0,21.465623,-254.0,0.0,0.0,0.0,1500.0,0.5207498669624329,6.272650157247352e-05,-0.08142780512571335,0.0,0.0,19.0,1500.0,0.0,0.019382793456315994,,,,,,,,,
12.800631000000001,-0.0037584775127470493,0.967459499835968,21.546207,-9.451820245934498e-06,0.11431906600562858,-9.691011428833008,0.0,-0.001448117895051837,0.0,0.23877212405204773,-2.7913088,1.6535433530807495,11.0,0.0,0.0,2.2514547980024802e-06,3.0,-93.0,11.0,-0.504549503326416,0.0,-0.008926896378397942,0.0,1500.0,-5.87,0.006806784082777886,0.0,0.0,0.0,0.01974552869796753,0.0,368.0,0.0,51.4594117,2.657438319086566,0.0,21.5656,-251.0,0.0,0.0,0.0,1500.0,0.528832733631134,-6.31070248513669e-06,-0.08144764602184296,0.0,0.0,19.0,1500.0,0.0,0.01939956657588482,,,,,,,,,
12.900691,-0.0026973842177540064,0.967461109161377,21.626500999999998,-6.985199761608004e-05,0.11431906600562858,-9.699440956115723,0.0,-0.0009474706021137536,0.0,0.23876038193702698,-2.7913088,1.5980106592178345,11.0,0.0,0.0,3.1551898136219594e-05,3.0,-92.0,11.0,-0.5251433849334717,0.0,0.07238179445266724,0.0,1500.0,-5.87,0.0066322511575784525,0.0,0.0,0.0,0.016152873635292053,0.0,366.0,0.0,51.4594117,2.657438319086566,0.0,21.66566,-248.0,0.0,0.0,0.0,1500.0,0.5338493585586548,0.0003243062141793647,-0.08146728575229645,0.0,0.0,19.0,1500.0,0.0,0.019382018595933914,,,,,,,,,
13.000680999999998,-0.0016963082598522305,0.9673961997032166,21.745881999999998,-7.688793665943677e-06,0.11466813185602745,-9.649714469909668,0.0,0.00021326086425688118,0.0,0.23896801471710205,-2.7913088,1.8042666912078857,11.0,0.0,0.0,2.2117413469524408e-05,3.0,-92.0,11.0,-0.6898941993713379,0.0,-0.10950180888175964,0.0,1500.0,-5.89,0.008377580409572781,0.0,0.0,0.0,0.016502292826771736,0.0,363.0,0.0,51.4594117,2.6572637861613666,0.0,21.765649999999997,-249.0,0.0,0.0,0.0,1500.0,0.5383259057998657,2.0475127410924438e-05,-0.08140892535448074,0.0,0.0,19.0,1500.0,0.0,0.0202854722738266,,,,,,,,,
13.100677,-0.000331803341396153,0.9674285650253296,21.826003999999998,3.282651630854775e-05,0.11466813185602745,-9.670877456665039,0.0,-0.001861285767517984,0.0,0.2388436198234558,-2.7913088,1.654932975769043,11.0,0.0,0.0,-1.113008189830045e-05,3.0,-92.0,11.0,-0.46336179971694946,0.0,0.02046961896121502,0.0,1500.0,-5.89,0.008028514559173916,0.0,0.0,0.0,0.02085070312023163,0.0,367.0,0.0,51.4594117,2.657438319086566,0.0,21.865645999999998,-248.0,0.0,0.0,0.0,1500.0,0.5423598289489746,-3.2964644220859883e-05,-0.08144466578960419,0.0,0.0,19.0,1500.0,0.0,0.0200639795511961,,,,,,,,,
13.200653,0.0015816609375178814,0.9674682021141052,21.946026999999997,2.6602876751518775e-05,0.11466813185602745,-9.68185043334961,0.0,-0.0022337257396429777,0.0,0.23869062960147858,-2.7913088999999998,1.6691298484802246,11.0,0.0,0.0,-1.6796339507975305e-05,3.0,-91.0,11.0,-0.6795973181724548,0.0,-0.06142047420144081,0.0,1500.0,-5.92,0.007853981633974483,0.0,0.0,0.0,0.020859403535723686,0.0,365.0,0.0,51.4594117,2.657787384936965,0.0,21.965622,-248.0,0.0,0.0,0.0,1500.0,0.5476171970367432,-0.00011753994108970572,-0.08144968003034592,0.0,0.0,19.0,1500.0,0.0,0.019953859969973564,,,,,,,,,
13.300566000000002,0.0023900081869214773,0.9675120115280151,22.026505,9.410446078089892e-06,0.11449359893082803,-9.696051597595215,0.0,-0.0012524727499112487,0.0,0.238525390625,-2.7913088999999998,1.6146621704101562,11.0,0.0,0.0,4.683473307684508e-06,3.0,-92.0,11.0,-0.5560341477394104,0.0,0.07028187066316605,0.0,1500.0,-5.92,0.006981317007977318,0.0,0.0,0.0,0.021807998418807983,0.0,366.0,0.0,51.4594117,2.6579619178621643,0.0,22.065535,-250.0,0.0,0.0,0.0,1500.0,0.5509687066078186,-5.129207785425753e-05,-0.08152434974908829,0.0,0.0,19.0,1500.0,0.0,0.01949167437851429,,,,,,,,,
13.400646,0.0040791770443320274,0.9675283432006836,22.145688999999997,-2.501363366427623e-06,0.11449359893082803,-9.687145233154297,0.0,-0.0010881766211241484,0.0,0.23845674097537994,-2.7913091999999997,1.6498287916183472,11.0,0.0,0.0,1.5255366621856579e-05,3.0,-94.0,11.0,-0.6075187921524048,0.0,-0.03665564954280853,0.0,1500.0,-5.94,0.006981317007977318,0.0,0.0,0.0,0.01837732084095478,0.0,367.0,0.0,51.4594117,2.658136450787364,0.0,22.165615,-253.0,0.0,0.0,0.0,1500.0,0.5569839477539062,3.437491756758008e-05,-0.08151522278785706,0.0,0.0,19.0,1500.0,0.0,0.01956145092844963,,,,,,,,,
13.500677000000001,0.005044818855822086,0.9675455093383789,22.225966,-5.283620718931534e-06,0.11449359893082803,-9.690863609313965,0.0,-0.0005085486336611211,0.0,0.23838293552398682,-2.7913091999999997,1.6401960849761963,11.0,0.0,0.0,-3.236610500358472e-06,3.0,-94.0,11.0,-0.6281126737594604,0.0,0.01853334717452526,0.0,1500.0,-5.94,0.006806784082777886,0.0,0.0,0.0,0.01978074572980404,0.0,366.0,0.0,51.4594117,2.6583109837125636,0.0,22.265646,-253.0,0.0,0.0,0.0,1500.0,0.5606237053871155,-8.407769645925177e-06,-0.08155535906553268,0.0,0.0,19.0,1500.0,0.0,0.019440999254584312,,,,,,,,,
13.600646,0.00662895618006587,0.9675617218017578,22.345734,-2.6500905773859525e-06,0.11466813185602745,-9.701033592224121,0.0,-0.0012083639157935977,0.0,0.23831024765968323,-2.7913093,1.640085220336914,11.0,0.0,0.0,2.053566783743811e-05,3.0,-94.0,11.0,-0.592073380947113,0.0,-0.024157237261533737,0.0,1500.0,-5.97,0.006981317007977318,0.0,0.0,0.0,0.01750916615128517,0.0,368.0,0.0,51.4594118,2.6584855166377626,0.0,22.365615,-253.0,0.0,0.0,0.0,1500.0,0.5668699145317078,0.00011623295382304311,-0.08156393468379974,0.0,0.0,19.0,1500.0,0.0,0.01949179545044899,,,,,,,,,
13.700656,0.007808849681168795,0.9675747752189636,22.425998,4.924217303892242e-06,0.11466813185602745,-9.690834999084473,0.0,-0.00018386229930911213,0.0,0.2382507175207138,-2.7913093,1.642012119293213,11.0,0.0,0.0,5.450599102822887e-06,3.0,-94.0,11.0,-0.6487064957618713,0.0,0.020255520939826965,0.0,1500.0,-5.97,0.006981317007977318,0.0,0.0,0.0,0.0194074809551239,0.0,365.0,0.0,51.4594118,2.6584855166377626,0.0,22.465625,-253.0,0.0,0.0,0.0,1500.0,0.5710803270339966,-4.892439370689961e-05,-0.08156724274158478,0.0,0.0,19.0,1500.0,0.0,0.019559241831302643,,,,,,,,,
13.800806,0.009690579026937485,0.9675907492637634,22.546255,-9.182862757061232e-06,0.11466813185602745,-9.699085235595703,0.0,-0.0003843525191769004,0.0,0.23817415535449982,-2.7913094999999997,1.6456880569458008,11.0,0.0,0.0,5.7924124518319915e-06,3.0,-93.0,11.0,-0.5302918553352356,0.0,0.0015347963199019432,0.0,1500.0,-6.0,0.006981317007977318,0.0,0.0,0.0,0.017201846465468407,0.0,368.0,0.0,51.4594119,2.6586600495629624,0.0,22.565775,-251.0,0.0,0.0,0.0,1500.0,0.5778230428695679,6.660201944779344e-05,-0.08160893619060516,0.0,0.0,19.0,1500.0,0.0,0.019523855298757553,,,,,,,,,
13.900875000000001,0.010298550128936768,0.967602550983429,22.626428999999998,-4.488658843673765e-06,0.11466813185602745,-9.69014835357666,0.0,6.201976793818176e-05,0.0,0.2381243258714676,-2.7913094999999997,1.657815933227539,11.0,0.0,0.0,5.9961359853539374e-06,3.0,-92.0,11.0,-0.5148464441299438,0.0,0.014163235202431679,0.0,1500.0,-6.0,0.006981317007977318,0.0,0.0,0.0,0.017456049099564552,0.0,365.0,0.0,51.4594119,2.658834582488162,0.0,22.665844,-249.0,0.0,0.0,0.0,1500.0,0.5814514756202698,2.6577291939776925e-05,-0.08160924166440964,0.0,0.0,19.0,1500.0,0.0,0.01955058053135872,,,,,,,,,
14.000670999999999,0.01024982612580061,0.9676121473312378,22.745713,-4.075351469032476e-06,0.11484266478122689,-9.67748737335205,0.0,0.00018595920118968934,0.0,0.23808057606220245,-2.7913097,1.6522812843322754,11.0,0.0,0.0,9.506043710908669e-06,3.0,-92.0,11.0,-0.48395565152168274,0.0,-0.0036478012334555387,0.0,1500.0,-6.0200000000000005,0.007155849933176752,0.0,0.0,0.0,0.016465088352560997,0.0,365.0,0.0,51.459412,2.658834582488162,0.0,22.765639999999998,-248.0,0.0,0.0,0.0,1500.0,0.5835188627243042,1.7736483811616344e-05,-0.0816066637635231,0.0,0.0,19.0,1500.0,0.0,0.019618915393948555,,,,,,,,,
14.100565000000001,0.009461711160838604,0.9676165580749512,22.825996,-1.8207394601544111e-06,0.11484266478122689,-9.693400382995605,0.0,-3.105716314166784e-05,0.0,0.23805582523345947,-2.7913097,1.6494271755218506,11.0,0.0,0.0,1.7588497456914476e-05,3.0,-92.0,11.0,-0.5199949145317078,0.0,0.012307115830481052,0.0,1500.0,-6.0200000000000005,0.007155849933176752,0.0,0.0,0.0,0.016389895230531693,0.0,364.0,0.0,51.459412,2.659009115413361,0.0,22.865534,-248.0,0.0,0.0,0.0,1500.0,0.582662045955658,3.2728460160623536e-05,-0.08162994682788849,0.0,0.0,19.0,1500.0,0.0,0.01960303820669651,,,,,,,,,
14.200676,0.007407291792333126,0.9676187038421631,22.945732,-6.443234735795632e-06,0.11484266478122689,-9.680627822875977,0.0,6.851987564004958e-05,0.0,0.23803040385246277,-2.7913098,1.648030400276184,11.0,0.0,0.0,-3.680419970931315e-06,3.0,-92.0,11.0,-0.5508856773376465,0.0,0.00426341500133276,0.0,1500.0,-6.03,0.007155849933176752,0.0,0.0,0.0,0.016031650826334953,0.0,365.0,0.0,51.459412099999994,2.659009115413361,0.0,22.965645,-249.0,0.0,0.0,0.0,1500.0,0.5792334079742432,1.7149599682997007e-05,-0.08166982978582382,0.0,0.0,19.0,1500.0,0.0,0.01963844709098339,,,,,,,,,
14.300567,0.005621601361781359,0.9676217436790466,23.026605,-3.6759672140275454e-06,0.11484266478122689,-9.68871784210205,0.0,0.00019524314848240465,0.0,0.23801890015602112,-2.7913098,1.650177240371704,11.0,0.0,0.0,1.703333426864725e-05,3.0,-93.0,11.0,-0.5869249105453491,0.0,0.010786662809550762,0.0,1500.0,-6.03,0.007155849933176752,0.0,0.0,0.0,0.01605335809290409,0.0,366.0,0.0,51.459412099999994,2.659009115413361,0.0,23.065535999999998,-250.0,0.0,0.0,0.0,1500.0,0.5767800807952881,3.251042034823143e-05,-0.0816689133644104,0.0,0.0,19.0,1500.0,0.0,0.01963100954890251,,,,,,,,,
14.400557999999998,0.003462187945842743,0.9676187038421631,23.145844,2.3966936096867234e-06,0.11501719770642631,-9.702592849731445,0.0,0.0005554506205953658,0.0,0.23801873624324799,-2.7913101,1.6453521251678467,11.0,0.0,0.0,1.5520695261160998e-05,3.0,-94.0,11.0,-0.6229642033576965,0.0,0.006752926856279373,0.0,1500.0,-6.0600000000000005,0.007155849933176752,0.0,0.0,0.0,0.015553194098174572,0.0,367.0,0.0,51.459412199999996,2.659009115413361,0.0,23.165526999999997,-253.0,0.0,0.0,0.0,1500.0,0.5741167068481445,4.8304645733178736e-06,-0.08169939368963242,0.0,0.0,19.0,1500.0,0.0,0.019655101001262665,,,,,,,,,
14.500653000000002,0.0026044868864119053,0.9676162004470825,23.226042,-8.79463071262238e-06,0.11501719770642631,-9.681535720825195,0.0,0.0006786303711123765,0.0,0.23802220821380615,-2.7913101,1.6568149328231812,11.0,0.0,0.0,1.3293335435064781e-05,3.0,-94.0,11.0,-0.6126672625541687,0.0,0.0014059519162401557,0.0,1500.0,-6.0600000000000005,0.007330382858376184,0.0,0.0,0.0,0.01528463140130043,0.0,366.0,0.0,51.459412199999996,2.659009115413361,0.0,23.265622,-253.0,0.0,0.0,0.0,1500.0,0.5737435221672058,9.232872205234846e-06,-0.08171021193265915,0.0,0.0,19.0,1500.0,0.0,0.019693957641720772,,,,,,,,,
14.600647,0.0034483601339161396,0.9676166772842407,23.345701,-5.803491516494108e-06,0.11501719770642631,-9.683466911315918,0.0,0.00020295081776566803,0.0,0.23801283538341522,-2.7913102,1.6658267974853516,11.0,0.0,0.0,8.606224134573428e-06,3.0,-94.0,11.0,-0.7413788437843323,0.0,-0.00886740442365408,0.0,1500.0,-6.07,0.007330382858376184,0.0,0.0,0.0,0.014289110898971558,0.0,369.0,0.0,51.4594123,2.659009115413361,0.0,23.365616,-253.0,0.0,0.0,0.0,1500.0,0.5750896334648132,6.21655415713172e-05,-0.08172006905078888,0.0,0.0,19.0,1500.0,0.0,0.019743284210562706,,,,,,,,,
14.700553000000001,0.00441884296014905,0.967619776725769,23.425967999999997,-1.6197459451105976e-06,0.11501719770642631,-9.681964874267578,0.0,0.0008285450749099255,0.0,0.23800113797187805,-2.7913102,1.652390718460083,11.0,0.0,0.0,-3.7034926780339234e-06,3.0,-95.0,11.0,-0.7465273141860962,0.0,0.039783965796232224,0.0,1500.0,-6.07,0.007330382858376184,0.0,0.0,0.0,0.015825890004634857,0.0,367.0,0.0,51.4594123,2.659009115413361,0.0,23.465522,-253.0,0.0,0.0,0.0,1500.0,0.578498363494873,-1.539545525076107e-05,-0.08172125369310379,0.0,0.0,19.0,1500.0,0.0,0.019728336483240128,,,,,,,,,
14.800714999999999,0.007582320831716061,0.9676225781440735,23.546246,-3.666441229930484e-06,0.11501719770642631,-9.689170837402344,0.0,-0.00017591998039279133,0.0,0.2379874289035797,-2.7913102999999997,1.6688389778137207,11.0,0.0,0.0,-1.0965779943353423e-05,3.0,-93.0,11.0,-0.592073380947113,0.0,0.0005702297203242779,0.0,1500.0,-6.09,0.007504915783575617,0.0,0.0,0.0,0.013959327712655067,0.0,366.0,0.0,51.4594125,2.6591836483385607,0.0,23.565683999999997,-251.0,0.0,0.0,0.0,1500.0,0.588253915309906,2.773356207132303e-05,-0.08171125501394272,0.0,0.0,19.0,1500.0,0.0,0.01979753002524376,,,,,,,,,
14.900657,0.009778114035725594,0.9676295518875122,23.626481,8.469746068761796e-06,0.11501719770642631,-9.678141593933105,0.0,-0.0008628960349597037,0.0,0.23796139657497406,-2.7913102999999997,1.6404632329940796,11.0,0.0,0.0,-4.20655541039375e-06,3.0,-91.0,11.0,-0.6950426697731018,0.0,-0.027606699615716934,0.0,1500.0,-6.09,0.00767944870877505,0.0,0.0,0.0,0.013998549431562424,0.0,366.0,0.0,51.4594125,2.6591836483385607,0.0,23.665626,-248.0,0.0,0.0,0.0,1500.0,0.5948704481124878,-2.5800978206368483e-06,-0.08168821036815643,0.0,0.0,19.0,1500.0,0.0,0.019864408299326897,,,,,,,,,
15.000665,0.01255587488412857,0.9676377177238464,23.745894999999997,-1.0334088868979864e-05,0.11501719770642631,-9.699488639831543,0.0,-0.00023554437211714685,0.0,0.23793159425258636,-2.7913104,1.6435250043869019,11.0,0.0,0.0,4.906462659578136e-06,3.0,-92.0,11.0,-0.6332611441612244,0.0,0.011972488835453987,0.0,1500.0,-6.11,0.007504915783575617,0.0,0.0,0.0,0.013418721035122871,0.0,365.0,0.0,51.4594125,2.6591836483385607,0.0,23.765634,-248.0,0.0,0.0,0.0,1500.0,0.604181170463562,7.206804217719926e-05,-0.08170267939567566,0.0,0.0,19.0,1500.0,0.0,0.01976427622139454,,,,,,,,,
15.100662999999999,0.013840903528034687,0.9676374793052673,23.826048,-1.6940043779549315e-05,0.11501719770642631,-9.686105728149414,0.0,0.00034070078982040286,0.0,0.23793117702007294,-2.7913104,1.6500346660614014,11.0,0.0,0.0,1.631624535139647e-06,3.0,-92.0,11.0,-0.6435580253601074,0.0,0.015906888991594315,0.0,1500.0,-6.11,0.007504915783575617,0.0,0.0,0.0,0.013553149066865444,0.0,365.0,0.0,51.4594125,2.6591836483385607,0.0,23.865631999999998,-248.0,0.0,0.0,0.0,1500.0,0.6099915504455566,-4.709220259513477e-05,-0.08169092983007431,0.0,0.0,19.0,1500.0,0.0,0.019824231043457985,,,,,,,,,
15.20067,0.015466057695448399,0.9676401615142822,23.945732,-1.5293276518416255e-05,0.11501719770642631,-9.682847023010254,0.0,-0.00023938568483572453,0.0,0.237924262881279,-2.7913106,1.6503334045410156,11.0,0.0,0.0,7.332429869580195e-06,3.0,-92.0,11.0,-0.7671211957931519,0.0,-0.02610582858324051,0.0,1500.0,-6.12,0.007504915783575617,0.011131884530186653,0.0,0.0,0.012275771237909794,0.0,364.0,0.0,51.4594126,2.6591836483385607,0.0,23.965639,-250.0,0.0,0.0,0.0,1500.0,0.6167572736740112,6.368805324400784e-05,-0.08168427646160126,0.0,0.0,19.0,1500.0,-0.013871862553060055,0.0198043305426836,,,,,,,,,
15.300642999999999,0.016431035473942757,0.9676440954208374,24.026522,4.177454515684995e-06,0.11501719770642631,-9.692066192626953,0.0,0.00017002841923385859,0.0,0.23791006207466125,-2.7913106,1.6417837142944336,11.0,0.0,0.0,3.301487043996764e-07,3.0,-94.0,11.0,-0.6898941993713379,0.0,0.03208078444004059,0.0,1500.0,-6.12,0.007504915783575617,0.011131884530186653,0.0,0.0,0.013690384104847908,0.0,365.0,0.0,51.4594126,2.65935818126376,0.0,24.065611999999998,-250.0,0.0,0.0,0.0,1500.0,0.6202841401100159,4.067034170202643e-05,-0.08168948441743851,0.0,0.0,19.0,1500.0,-0.013871862553060055,0.01976071111857891,,,,,,,,,
15.400713000000001,0.016909664496779442,0.967650294303894,24.145842,-6.397300124021976e-07,0.11501719770642631,-9.685062408447266,0.0,0.0005301740020513535,0.0,0.2378862500190735,-2.7913107,1.6366827487945557,11.0,0.0,0.0,-1.710288637212074e-06,3.0,-94.0,11.0,-0.5405887365341187,0.0,0.023273831233382225,0.0,1500.0,-6.15,0.007504915783575617,0.022263769060373306,0.0,0.0,0.013867502100765705,0.0,368.0,0.0,51.459412699999994,2.65935818126376,0.0,24.165682,-253.0,0.0,0.0,0.0,1500.0,0.6244807839393616,6.946040441576255e-07,-0.08168363571166992,0.0,0.0,19.0,1500.0,-0.020807795226573944,0.019771896302700043,,,,,,,,,
15.500680999999998,0.016656851395964622,0.9676553010940552,24.226017,-2.3797196963058934e-06,0.11501719770642631,-9.703286170959473,0.0,0.00010477665637154132,0.0,0.237868070602417,-2.7913107,1.6515536308288574,11.0,0.0,0.0,1.0340236172658786e-05,3.0,-95.0,11.0,-0.6487064957618713,0.0,0.0002204465854447335,0.0,1500.0,-6.15,0.007504915783575617,0.022263769060373306,0.0,0.0,0.013488555327057838,0.0,366.0,0.0,51.459412699999994,2.65935818126376,0.0,24.265649999999997,-252.0,0.0,0.0,0.0,1500.0,0.6267027854919434,3.7871218631124635e-05,-0.0816822499036789,0.0,0.0,19.0,1500.0,-0.020807795226573944,0.01975114457309246,,,,,,,,,
15.6011,0.015987470746040344,0.9676634669303894,24.345651999999998,1.0039796769262809e-07,0.11484266478122689,-9.692068099975586,0.0,0.00043352870852686465,0.0,0.23784498870372772,-2.7913107999999998,1.6397150754928589,11.0,0.0,0.0,-4.448893885716352e-06,3.0,-94.0,11.0,-0.6950426697731018,0.0,0.012546992860734463,0.0,1500.0,-6.18,0.007504915783575617,0.03339565545320511,0.0,0.0,0.01428193598985672,0.0,368.0,0.0,51.459412799999996,2.65935818126376,0.0,24.366069,-253.0,0.0,0.0,0.0,1500.0,0.6293225884437561,2.953836816937626e-05,-0.08165473490953445,0.0,0.0,19.0,1500.0,-0.02774372510612011,0.01974223554134369,,,,,,,,,
15.700567999999999,0.0184453297406435,0.9676653146743774,24.426035,-8.800475273532119e-06,0.11484266478122689,-9.693020820617676,0.0,0.0007632914348505437,0.0,0.2378411889076233,-2.7913107999999998,1.6520893573760986,11.0,0.0,0.0,3.900351354178433e-07,3.0,-94.0,11.0,-0.7413788437843323,0.0,0.010884555988013744,0.0,1500.0,-6.18,0.007504915783575617,0.03339565545320511,0.0,0.0,0.013679804280400276,0.0,367.0,0.0,51.459412799999996,2.65935818126376,0.0,24.465536999999998,-253.0,0.0,0.0,0.0,1500.0,0.636996865272522,4.0619635335934496e-05,-0.08163977414369583,0.0,0.0,19.0,1500.0,-0.02774372510612011,0.019759129732847214,,,,,,,,,
15.801246999999998,0.021074246615171432,0.9676580429077148,24.54625,-1.7455061041609323e-05,0.11484266478122689,-9.683101654052734,0.0,0.0005600646254606545,0.0,0.23787091672420502,-2.791311,1.6451282501220703,11.0,0.0,0.0,-7.963660734307983e-06,3.0,-93.0,11.0,-0.756824254989624,0.0,0.005395355634391308,0.0,1500.0,-6.21,0.00767944870877505,0.04452753812074661,0.0,0.0,0.013013982214033604,0.0,366.0,0.0,51.4594129,2.65935818126376,0.0,24.566215999999997,-250.0,0.0,0.0,0.0,1500.0,0.6459265947341919,4.4152168003908894e-05,-0.0816233828663826,0.0,0.0,19.0,1500.0,-0.04161559045314789,0.019823705777525902,,,,,,,,,
15.900659,0.02463401108980179,0.9676547646522522,24.626535999999998,9.640450325356672e-06,0.11484266478122689,-9.685025215148926,0.0,0.00021258986089378595,0.0,0.23788298666477203,-2.791311,1.6539742946624756,11.0,0.0,0.0,3.3567427424437926e-06,3.0,-92.0,11.0,-0.669300377368927,0.0,0.002574414014816284,0.0,1500.0,-6.21,0.00767944870877505,0.04452753812074661,0.0,0.0,0.012630386278033257,0.0,362.0,0.0,51.4594129,2.65935818126376,0.0,24.665627999999998,-248.0,0.0,0.0,0.0,1500.0,0.6560912132263184,3.86517423176723e-05,-0.08161948621273041,0.0,0.0,19.0,1500.0,-0.04161559045314789,0.019855068996548653,,,,,,,,,
16.001123,0.027223607525229454,0.9676542282104492,24.745791999999998,-2.1905727191623786e-05,0.11484266478122689,-9.682888984680176,0.0,-0.0007675006054341793,0.0,0.23788906633853912,-2.7913110999999997,1.6526076793670654,11.0,0.0,0.0,-5.036793929668514e-06,3.0,-92.0,11.0,-0.5508856773376465,0.0,-0.005028713494539261,0.0,1500.0,-6.21,0.007853981633974483,0.06679131090641022,0.0,0.0,0.0123217161744833,0.0,366.0,0.0,51.4594131,2.65935818126376,0.0,24.766092,-249.0,0.0,0.0,0.0,1500.0,0.668060302734375,1.0889133195153151e-05,-0.08159865438938141,0.0,0.0,19.0,1500.0,-0.0485515221953392,0.019892267882823944,,,,,,,,,
16.100664000000002,0.029780173674225807,0.9676517844200134,24.826055,2.5815091810129748e-06,0.11484266478122689,-9.690723419189453,0.0,-0.000981709104962647,0.0,0.23790229856967926,-2.7913110999999997,1.6398100852966309,11.0,0.0,0.0,-4.1493261694232943e-07,3.0,-92.0,11.0,-0.7465273141860962,0.0,-0.010945665650069714,0.0,1500.0,-6.21,0.007853981633974483,0.06679131090641022,0.0,0.0,0.011300910264253616,0.0,364.0,0.0,51.4594131,2.65935818126376,0.0,24.865633,-248.0,0.0,0.0,0.0,1500.0,0.6770623326301575,2.3917869418122482e-05,-0.08158372342586517,0.0,0.0,19.0,1500.0,-0.0485515221953392,0.019920319318771362,,,,,,,,,
16.201062,0.03189023956656456,0.9676522016525269,24.945686,-9.577363380071859e-07,0.11484266478122689,-9.684383392333984,0.0,-0.0006341772386804223,0.0,0.23790116608142853,-2.7913113,1.6483666896820068,11.0,0.0,0.0,-6.122902916499101e-06,3.0,-92.0,11.0,-0.58177649974823,0.0,0.010581896640360355,0.0,1500.0,-6.22,0.007853981633974483,0.07792319357395172,0.0,0.0,0.01120966486632824,0.0,365.0,0.0,51.4594132,2.65935818126376,0.0,24.966030999999997,-248.0,0.0,0.0,0.0,1500.0,0.6878761649131775,1.5931222583494012e-05,-0.0815848708152771,0.0,0.0,19.0,1500.0,-0.062423381954431534,0.01990479603409767,,,,,,,,,
16.300704000000003,0.03374715521931648,0.967646598815918,25.026351,-1.0516706761462382e-05,0.11484266478122689,-9.690007209777832,0.0,-0.001158482045866549,0.0,0.23792509734630585,-2.7913113,1.648134708404541,11.0,0.0,0.0,-3.025783686829418e-06,3.0,-93.0,11.0,-0.7156365513801575,0.0,0.00601845933124423,0.0,1500.0,-6.22,0.007853981633974483,0.07792319357395172,0.0,0.0,0.009835825301706791,0.0,366.0,0.0,51.4594132,2.65935818126376,0.0,25.065673,-250.0,0.0,0.0,0.0,1500.0,0.6956683397293091,4.01965553637491e-05,-0.08157036453485489,0.0,0.0,19.0,1500.0,-0.062423381954431534,0.019951345399022102,,,,,,,,,
16.401229999999998,0.035451579838991165,0.9676374197006226,25.145737999999998,-1.1745932820804609e-05,0.11484266478122689,-9.695401191711426,0.0,-0.0014600747963413596,0.0,0.23796164989471436,-2.7913115,1.643385887145996,11.0,0.0,0.0,7.1302642422211356e-06,3.0,-94.0,11.0,-0.592073380947113,0.0,-0.03418327495455742,0.0,1500.0,-6.23,0.008028514559173916,0.10018695890903473,0.0,0.0,0.009850203059613705,0.0,367.0,0.0,51.459413399999995,2.6591836483385607,0.0,25.166199,-253.0,0.0,0.0,0.0,1500.0,0.7051347494125366,-3.4637747055165756e-05,-0.08155526965856552,0.0,0.0,19.0,1500.0,-0.07629524916410446,0.020020263269543648,,,,,,,,,
16.500543999999998,0.0365883894264698,0.967639684677124,25.226059,-4.465046431550594e-06,0.11484266478122689,-9.698539733886719,0.0,-0.0017184136668220162,0.0,0.23795180022716522,-2.7913115,1.6482460498809814,11.0,0.0,0.0,-6.86955344606207e-06,3.0,-94.0,11.0,-0.7207850217819214,0.0,0.021157342940568924,0.0,1500.0,-6.23,0.007853981633974483,0.10018695890903473,0.0,0.0,0.008979806676506996,0.0,367.0,0.0,51.459413399999995,2.6591836483385607,0.0,25.265513,-253.0,0.0,0.0,0.0,1500.0,0.7119002342224121,6.926134444157593e-05,-0.0815812349319458,0.0,0.0,19.0,1500.0,-0.07629524916410446,0.019924232736229897,,,,,,,,,
16.601104,0.037489086389541626,0.9676371812820435,25.345841,3.774863269953171e-06,0.11484266478122689,-9.68631362915039,0.0,-0.0021130694076418877,0.0,0.23796871304512024,-2.7913117,1.653883695602417,11.0,0.0,0.0,1.2470683263537883e-06,3.0,-94.0,11.0,-0.6178157329559326,0.0,0.0012960339663550258,0.0,1500.0,-6.23,0.008028514559173916,0.11131884157657623,0.0,0.0,0.008861147798597813,0.0,367.0,0.0,51.4594135,2.6591836483385607,0.0,25.366073,-253.0,0.0,0.0,0.0,1500.0,0.7202657461166382,-1.052243550802418e-05,-0.08154287934303284,0.0,0.0,19.0,1500.0,-0.09016711264848709,0.02000322937965393,,,,,,,,,
16.700650000000003,0.03843914717435837,0.9676438570022583,25.426022999999997,-7.825588189381483e-07,0.11484266478122689,-9.702784538269043,0.0,-0.0022912926506251097,0.0,0.23794351518154144,-2.7913117,1.64780855178833,11.0,0.0,0.0,1.033638585354738e-05,3.0,-94.0,11.0,-0.6898941993713379,0.0,0.023389168083667755,0.0,1500.0,-6.23,0.007853981633974483,0.11131884157657623,0.0,0.0,0.008541884832084179,0.0,367.0,0.0,51.4594135,2.6591836483385607,0.0,25.465619,-253.0,0.0,0.0,0.0,1500.0,0.7256723642349243,1.2217731012775598e-05,-0.08155368268489838,0.0,0.0,19.0,1500.0,-0.09016711264848709,0.019934847950935364,,,,,,,,,
16.801102,0.03922586888074875,0.9676476716995239,25.546201999999997,-5.7419620964039305e-06,0.11484266478122689,-9.696342468261719,0.0,-0.0029928539879620075,0.0,0.23793207108974457,-2.7913118,1.6484272480010986,11.0,0.0,0.0,1.162573886186282e-05,3.0,-93.0,11.0,-0.7104880809783936,0.0,0.014217237941920757,0.0,1500.0,-6.22,0.007853981633974483,0.13358262181282043,0.0,0.0,0.007938542403280735,0.0,366.0,0.0,51.4594137,2.65935818126376,0.0,25.566070999999997,-251.0,0.0,0.0,0.0,1500.0,0.7325997948646545,-1.7514285095830486e-06,-0.08153355866670609,0.0,0.0,19.0,1500.0,-0.0971030443906784,0.019966721534729004,,,,,,,,,
16.900711,0.039339691400527954,0.9676485657691956,25.626621,-3.546427595960271e-06,0.11484266478122689,-9.699633598327637,0.0,-0.003588347230106592,0.0,0.2379237711429596,-2.7913118,1.6517484188079834,11.0,0.0,0.0,1.3821567469795333e-06,3.0,-91.0,11.0,-0.5766280293464661,0.0,-0.006835168227553368,0.0,1500.0,-6.22,0.008028514559173916,0.13358262181282043,0.0,0.0,0.007214277051389217,0.0,364.0,0.0,51.4594137,2.65935818126376,0.0,25.66568,-249.0,0.0,0.0,0.0,1500.0,0.7361733317375183,5.249807907317606e-05,-0.08153844624757767,0.0,0.0,19.0,1500.0,-0.0971030443906784,0.020004000514745712,,,,,,,,,
17.001111,0.03971610590815544,0.9676482677459717,25.745737,-8.621366352609176e-06,0.11484266478122689,-9.693702697753906,0.0,-0.004800860304385424,0.0,0.23792877793312073,-2.791312,1.6333750486373901,11.0,0.0,0.0,-1.2833152203093974e-05,3.0,-92.0,11.0,-0.7722696661949158,0.0,0.03607990965247154,0.0,1500.0,-6.22,0.008028514559173916,0.15584638714790344,0.0,0.0,0.007302067708224058,0.0,366.0,0.0,51.459413899999994,2.65935818126376,0.0,25.76608,-248.0,0.0,0.0,0.0,1500.0,0.7411440014839172,6.958809532190292e-05,-0.08151943236589432,0.0,0.0,19.0,1500.0,-0.11097490042448044,0.02003418281674385,,,,,,,,,
17.100648999999997,0.03885655105113983,0.9676482081413269,25.82604,-1.9627628998102652e-06,0.11484266478122689,-9.695923805236816,0.0,-0.004805390257388353,0.0,0.23792991042137146,-2.791312,1.652366042137146,11.0,0.0,0.0,6.295355560161378e-07,3.0,-91.0,11.0,-0.6281126737594604,0.0,-0.0037397018168121576,0.0,1500.0,-6.22,0.008377580409572781,0.15584638714790344,0.0,0.0,0.006857550702989101,0.0,366.0,0.0,51.459413899999994,2.65935818126376,0.0,25.865617999999998,-248.0,0.0,0.0,0.0,1500.0,0.7434526681900024,-7.6307894720584e-06,-0.08148068934679031,0.0,0.0,19.0,1500.0,-0.11097490042448044,0.020180534571409225,,,,,,,,,
17.201127,0.037951868027448654,0.9676675200462341,25.945786,1.4398874818550967e-05,0.11484266478122689,-9.695623397827148,0.0,-0.0052193510346114635,0.0,0.23785680532455444,-2.7913123,1.6442134380340576,11.0,0.0,0.0,-4.34450909322631e-06,3.0,-92.0,11.0,-0.6795973181724548,0.0,0.010982604697346687,0.0,1500.0,-6.22,0.00820304748437335,0.17811015248298645,0.0,0.0,0.006668102461844683,0.0,365.0,0.0,51.4594141,2.659532714188959,0.0,25.966096,-248.0,0.0,0.0,0.0,1500.0,0.7468438148498535,2.689373127947574e-05,-0.08148421347141266,0.0,0.0,19.0,1500.0,-0.13178269565105438,0.02010246179997921,,,,,,,,,
17.300676000000003,0.03752967342734337,0.967673122882843,26.0266,1.2584841161529697e-05,0.11466813185602745,-9.68182373046875,0.0,-0.005248021334409714,0.0,0.23783668875694275,-2.7913123,1.633237600326538,11.0,0.0,0.0,-6.5164893426996025e-06,3.0,-92.0,11.0,-0.7207850217819214,0.0,-0.024270733818411827,0.0,1500.0,-6.22,0.008377580409572781,0.17811015248298645,0.0,0.0,0.006461263168603182,0.0,368.0,0.0,51.4594141,2.659532714188959,0.0,26.065645,-251.0,0.0,0.0,0.0,1500.0,0.7481567859649658,2.994251351158847e-05,-0.08147022128105164,0.0,0.0,19.0,1500.0,-0.13178269565105438,0.020129196345806122,,,,,,,,,
17.401103,0.036981068551540375,0.967688262462616,26.145640999999998,-8.134151518473161e-07,0.11466813185602745,-9.693711280822754,0.0,-0.00554075138643384,0.0,0.23778334259986877,-2.7913126999999998,1.6620781421661377,11.0,0.0,0.0,1.0324830832551835e-05,3.0,-94.0,11.0,-0.7516757845878601,0.0,0.0330740325152874,0.0,1500.0,-6.22,0.00820304748437335,0.18924203515052795,0.0,0.0,0.006843518000096083,0.0,367.0,0.0,51.4594142,2.659532714188959,0.0,26.166072,-253.0,0.0,0.0,0.0,1500.0,0.7505321502685547,-6.036138159541565e-06,-0.0814702957868576,0.0,0.0,19.0,1500.0,-0.15952640771865845,0.020031234249472618,,,,,,,,,
17.500673,0.0363134890794754,0.96768718957901,26.226025999999997,-5.481993426395494e-06,0.11466813185602745,-9.698275566101074,0.0,-0.006948866881430149,0.0,0.2377830594778061,-2.7913126999999998,1.658473014831543,11.0,0.0,0.0,7.315135434911859e-06,3.0,-94.0,11.0,-0.756824254989624,0.0,-0.03497485816478729,0.0,1500.0,-6.22,0.008377580409572781,0.18924203515052795,0.0,0.0,0.00499687809497118,0.0,367.0,0.0,51.4594142,2.659707247114159,0.0,26.265642,-252.0,0.0,0.0,0.0,1500.0,0.7512139081954956,0.00010496224282888111,-0.08144422620534897,0.0,0.0,19.0,1500.0,-0.15952640771865845,0.02019299939274788,,,,,,,,,
17.601103000000002,0.035445984452962875,0.9676956534385681,26.345685999999997,2.004214277220167e-06,0.11466813185602745,-9.689623832702637,0.0,-0.00632511917501688,0.0,0.23774555325508118,-2.7913129,1.646187663078308,11.0,0.0,0.0,-1.4578380962369044e-05,3.0,-94.0,11.0,-0.7362303733825684,0.0,0.027878612279891968,0.0,1500.0,-6.2,0.008377580409572781,0.21150580048561096,0.0,0.0,0.007113335654139519,0.0,367.0,0.0,51.4594144,2.659707247114159,0.0,26.366072,-254.0,0.0,0.0,0.0,1500.0,0.7528192400932312,3.0894180834892073e-06,-0.08145397156476974,0.0,0.0,19.0,1500.0,-0.17339828610420227,0.020186912268400192,,,,,,,,,
17.700560000000003,0.03395455703139305,0.9676914811134338,26.426021,-7.864320596392498e-07,0.11466813185602745,-9.68919563293457,0.0,-0.00699583301320672,0.0,0.23776596784591675,-2.7913129,1.6487188339233398,11.0,0.0,0.0,-1.5925600508042162e-06,3.0,-94.0,11.0,-0.7001911401748657,0.0,-0.03289775922894478,0.0,1500.0,-6.2,0.008726646259971648,0.21150580048561096,0.0,0.0,0.00572399515658617,0.0,367.0,0.0,51.4594144,2.659707247114159,0.0,26.465529,-253.0,0.0,0.0,0.0,1500.0,0.7520421743392944,4.807412946458421e-05,-0.08141250163316727,0.0,0.0,19.0,1500.0,-0.17339828610420227,0.020313981920480728,,,,,,,,,
17.801257999999997,0.03241874650120735,0.9676944017410278,26.546256999999997,-9.827623328212741e-07,0.11466813185602745,-9.694536209106445,0.0,-0.006107129622250795,0.0,0.23775573074817657,-2.7913129,1.6515271663665771,11.0,0.0,0.0,-9.075492697365684e-06,3.0,-93.0,11.0,-0.7156365513801575,0.0,0.019017018377780914,0.0,1500.0,-6.18,0.008552113334772215,0.23376958072185516,0.0,0.0,0.007315952330827713,0.0,366.0,0.0,51.459414599999995,2.659707247114159,0.0,26.566226999999998,-251.0,0.0,0.0,0.0,1500.0,0.7519665956497192,-1.3479218479426996e-05,-0.08143042773008347,0.0,0.0,19.0,1500.0,-0.17339828610420227,0.0202193483710289,,,,,,,,,
17.900705000000002,0.03107265755534172,0.9676890969276428,26.626669999999997,-9.766044890207756e-06,0.11466813185602745,-9.685531616210938,0.0,-0.006752884481102228,0.0,0.23777946829795837,-2.7913129,1.6577699184417725,11.0,0.0,0.0,2.8413846407896246e-06,3.0,-91.0,11.0,-0.7156365513801575,0.0,-0.01902736909687519,0.0,1500.0,-6.18,0.008552113334772215,0.23376958072185516,0.0,0.0,0.0061411624774336815,0.0,365.0,0.0,51.459414599999995,2.659707247114159,0.0,26.665674,-248.0,0.0,0.0,0.0,1500.0,0.7494820952415466,3.707869901632697e-05,-0.08141025900840759,0.0,0.0,19.0,1500.0,-0.17339828610420227,0.020275039598345757,,,,,,,,,
18.001088000000003,0.029875559732317924,0.9676907062530518,26.745682,3.125748612674591e-07,0.11466813185602745,-9.698396682739258,0.0,-0.006756407208740711,0.0,0.23777295649051666,-2.7913129999999997,1.644209623336792,11.0,0.0,0.0,-2.837726329676124e-06,3.0,-92.0,11.0,-0.7001911401748657,0.0,0.020177382975816727,0.0,1500.0,-6.16,0.008552113334772215,0.24490146338939667,0.0,0.0,0.0069177523255348206,0.0,365.0,0.0,51.459414699999996,2.659707247114159,0.0,26.766057,-248.0,0.0,0.0,0.0,1500.0,0.7475229501724243,-3.4393209123147586e-06,-0.08142994344234467,0.0,0.0,19.0,1500.0,-0.18033422529697418,0.02019851841032505,,,,,,,,,
18.100672000000003,0.027212053537368774,0.9676878452301025,26.826058999999997,-1.8330566716284075e-05,0.11466813185602745,-9.69141960144043,0.0,-0.007380939554423094,0.0,0.237784281373024,-2.7913129999999997,1.650102972984314,11.0,0.0,0.0,-1.7889535012210008e-06,3.0,-91.0,11.0,-0.6641519069671631,0.0,-0.022794097661972046,0.0,1500.0,-6.16,0.008552113334772215,0.24490146338939667,0.0,0.0,0.005715957842767239,0.0,365.0,0.0,51.459414699999996,2.659707247114159,0.0,26.865641,-249.0,0.0,0.0,0.0,1500.0,0.743423581123352,4.605290089134873e-05,-0.08141298592090607,0.0,0.0,19.0,1500.0,-0.18033422529697418,0.020271211862564087,,,,,,,,,
18.201105,0.02527550794184208,0.9676867723464966,26.945688999999998,-6.122968443038068e-06,0.11466813185602745,-9.694316864013672,0.0,-0.007060938980430365,0.0,0.23779596388339996,-2.7913132,1.6387444734573364,11.0,0.0,0.0,1.7200405608791557e-05,3.0,-91.0,11.0,-0.7825666069984436,0.0,0.01758849248290062,0.0,1500.0,-6.12,0.008552113334772215,0.2782971262931824,0.0,0.0,0.006693117320537567,0.0,366.0,0.0,51.459415,2.659532714188959,0.0,26.966074,-248.0,0.0,0.0,0.0,1500.0,0.7394883036613464,9.686674473000183e-06,-0.08140906691551208,0.0,0.0,19.0,1500.0,-0.1942060887813568,0.020199233666062355,,,,,,,,,
18.300523,0.02217867225408554,0.9676804542541504,27.026474,-1.3119221769833335e-05,0.11466813185602745,-9.682119369506836,0.0,-0.0070907059125602245,0.0,0.2378181368112564,-2.7913132,1.646683692932129,11.0,0.0,0.0,-5.856039483105617e-07,3.0,-93.0,11.0,-0.7156365513801575,0.0,-0.01641096919775009,0.0,1500.0,-6.12,0.008726646259971648,0.2782971262931824,0.0,0.0,0.005918704438954592,0.0,366.0,0.0,51.459415,2.659532714188959,0.0,27.065492,-251.0,0.0,0.0,0.0,1500.0,0.7329722046852112,4.917740843645486e-06,-0.08139687031507492,0.0,0.0,19.0,1500.0,-0.1942060887813568,0.02029057964682579,,,,,,,,,
18.401286999999996,0.019282421097159386,0.9676830768585205,27.145847999999997,-1.0230777391038951e-05,0.11466813185602745,-9.694954872131348,0.0,-0.007398120127618313,0.0,0.23780600726604462,-2.7913134,1.6368674039840698,11.0,0.0,0.0,-1.04685645656705e-05,3.0,-94.0,11.0,-0.7362303733825684,0.0,0.030289050191640854,0.0,1500.0,-6.08,0.008377580409572781,0.3228246569633484,0.0,0.0,0.006304314825683832,0.0,368.0,0.0,51.4594154,2.659532714188959,0.0,27.166255999999997,-253.0,0.0,0.0,0.0,1500.0,0.7262086868286133,9.124877357609613e-06,-0.08142855018377304,0.0,0.0,19.0,1500.0,-0.20807793736457825,0.02018139511346817,,,,,,,,,
18.500698999999997,0.015712393447756767,0.9676821231842041,27.226062,-2.033235676554129e-06,0.11466813185602745,-9.702005386352539,0.0,-0.007981337606906891,0.0,0.23781311511993408,-2.7913134,1.6405885219573975,11.0,0.0,0.0,-8.062461548171156e-06,3.0,-94.0,11.0,-0.756824254989624,0.0,-0.017485253512859344,0.0,1500.0,-6.08,0.008552113334772215,0.3228246569633484,0.0,0.0,0.005474546458572149,0.0,367.0,0.0,51.4594154,2.659532714188959,0.0,27.265667999999998,-253.0,0.0,0.0,0.0,1500.0,0.7171042561531067,3.3253826552179024e-05,-0.08140062540769577,0.0,0.0,19.0,1500.0,-0.20807793736457825,0.02025103010237217,,,,,,,,,
18.601086000000002,0.011128370650112629,0.9676902890205383,27.345713,-5.7149626225611225e-06,0.11466813185602745,-9.700637817382812,0.0,-0.00757625512778759,0.0,0.23777955770492554,-2.7913136,1.6258081197738647,11.0,0.0,0.0,1.8199907305541196e-07,3.0,-94.0,11.0,-0.834051251411438,0.0,0.0178084559738636,0.0,1500.0,-6.03,0.008377580409572781,0.3450884222984314,0.0,0.0,0.005782829597592354,0.0,367.0,0.0,51.4594156,2.659707247114159,0.0,27.366055,-252.0,0.0,0.0,0.0,1500.0,0.7072511315345764,-8.797246694604403e-06,-0.08142174780368805,0.0,0.0,19.0,1500.0,-0.22194980084896088,0.02017204277217388,,,,,,,,,
18.700673000000002,0.006312726065516472,0.9676898717880249,27.426019,1.517708424997046e-06,0.11466813185602745,-9.690841674804688,0.0,-0.00707407109439373,0.0,0.23777952790260315,-2.7913136,1.6410974264144897,11.0,0.0,0.0,1.1194972474269277e-05,3.0,-94.0,11.0,-0.7001911401748657,0.0,-0.012581996619701385,0.0,1500.0,-6.03,0.008552113334772215,0.3450884222984314,0.0,0.0,0.004721027333289385,0.0,367.0,0.0,51.4594156,2.659707247114159,0.0,27.465642,-253.0,0.0,0.0,0.0,1500.0,0.6951836943626404,4.577350792017669e-05,-0.08141530305147171,0.0,0.0,19.0,1500.0,-0.22194980084896088,0.02021937631070614,,,,,,,,,
18.801102,0.001581930322572589,0.9676934480667114,27.546291999999998,-5.490368378420465e-07,0.11466813185602745,-9.696418762207031,0.0,-0.0066311839036643505,0.0,0.23776011168956757,-2.7913136,1.6527724266052246,11.0,0.0,0.0,4.851593072452289e-06,3.0,-93.0,11.0,-0.7671211957931519,0.0,0.018312448635697365,0.0,1500.0,-6.0,0.008377580409572781,0.3673521876335144,0.0,0.0,0.005572116002440453,0.0,365.0,0.0,51.459415799999995,2.659707247114159,0.0,27.566070999999997,-250.0,0.0,0.0,0.0,1500.0,0.6817709803581238,3.640775144962008e-07,-0.08143776655197144,0.0,0.0,19.0,1500.0,-0.22194980084896088,0.020185742527246475,,,,,,,,,
18.900652,-0.002855135127902031,0.967689037322998,27.626611999999998,-4.55751364826069e-08,0.11466813185602745,-9.818694114685059,0.0,-0.006940152961760759,0.0,0.2377798706293106,-2.7913136,1.6097291707992554,11.0,0.0,0.0,-1.8154059554528497e-05,3.0,-92.0,11.0,-0.7671211957931519,0.0,0.0008243982447311282,0.0,1500.0,-6.0,0.008552113334772215,0.3673521876335144,0.0,0.0,0.005690485239028931,0.0,365.0,0.0,51.459415799999995,2.659707247114159,0.0,27.665620999999998,-248.0,0.0,0.0,0.0,1500.0,0.6676998734474182,-9.971417254314877e-06,-0.08142034709453583,0.0,0.0,19.0,1500.0,-0.22194980084896088,0.020237267017364502,,,,,,,,,
19.001226000000003,-0.005746195092797279,0.9676930904388428,27.745677999999998,-1.1719379841750578e-05,0.11466813185602745,-9.771985054016113,0.0,-0.00837735179811716,0.0,0.23777861893177032,-2.7913137,1.6272205114364624,11.0,0.0,0.0,-2.752366786806951e-05,3.0,-91.0,11.0,-0.8083088994026184,0.0,0.043839357793331146,0.0,1500.0,-5.95,0.008552113334772215,0.3896159529685974,0.0,0.0,0.007158008404076099,0.0,365.0,0.0,51.459416,2.659707247114159,0.0,27.766195,-248.0,0.0,0.0,0.0,1500.0,0.6518869400024414,0.00010095894312299854,-0.08138307929039001,0.0,0.0,19.0,1500.0,-0.2288857400417328,0.020204506814479828,,,,,,,,,
19.100658000000003,-0.012027101591229439,0.9676951169967651,27.826058999999997,1.9165037538835386e-05,0.11449359893082803,-9.858196258544922,0.0,-0.008921020664274693,0.0,0.23778179287910461,-2.7913137,1.634321928024292,11.0,0.0,0.0,-1.717511744432689e-05,3.0,-92.0,11.0,-0.7310819625854492,0.0,-0.06010029464960098,0.0,1500.0,-5.95,0.008726646259971648,0.3896159529685974,0.0,0.0,0.008045020513236523,0.0,366.0,0.0,51.459416,2.659707247114159,0.0,27.865627,-247.0,0.0,0.0,0.0,1500.0,0.6356556415557861,-0.0001223907173662304,-0.08133027702569962,0.0,0.0,19.0,1500.0,-0.2288857400417328,0.020283328369259834,,,,,,,,,
19.201073,-0.02125648781657219,0.9676986336708069,27.945646999999997,-4.046356635884468e-05,0.11431906600562858,-9.7083740234375,0.0,-0.00744048785418272,0.0,0.23780755698680878,-2.7913137,1.5762710571289062,11.0,0.0,0.0,2.8848132942118027e-05,3.0,-92.0,11.0,-0.7465273141860962,0.0,0.017405539751052856,0.0,1500.0,-5.9,0.008726646259971648,0.4118797183036804,0.0,0.0,0.0035077098291367292,0.0,364.0,0.0,51.4594162,2.659532714188959,0.0,27.966041999999998,-248.0,0.0,0.0,0.0,1500.0,0.6172743439674377,0.00028304552001377265,-0.08122023195028305,0.0,0.0,19.0,1500.0,-0.2288857400417328,0.020254796370863914,,,,,,,,,
19.300654,-0.027109649032354355,0.9676939249038696,28.026595,4.092100865124752e-05,0.11431906600562858,-9.621582984924316,0.0,-0.002705617807805538,0.0,0.23781520128250122,-2.7913137,1.756725788116455,11.0,0.0,0.0,4.006668481126216e-05,3.0,-92.0,11.0,-0.921575129032135,0.0,0.1464691013097763,0.0,1500.0,-5.9,0.008726646259971648,0.4118797183036804,0.0,0.0,0.00889354944229126,0.0,367.0,0.0,51.4594162,2.659532714188959,0.0,28.065623,-250.0,0.0,0.0,0.0,1500.0,0.5986863374710083,-0.0002876767610505353,-0.08124404400587082,0.0,0.0,19.0,1500.0,-0.2288857400417328,0.020294439047574997,,,,,,,,,
19.401106,-0.03275011107325554,0.9676858186721802,28.145692,-9.340844702722757e-06,0.11431906600562858,-9.744701385498047,0.0,-0.011371053755283356,0.0,0.23784498870372772,-2.7913139,1.8218144178390503,11.0,0.0,0.0,-7.5679647599188715e-06,3.0,-94.0,11.0,-0.7928634881973267,0.0,-0.12383656948804855,0.0,1500.0,-5.84,0.009075712110370514,0.4341434836387634,0.0,0.0,0.002497834386304021,0.0,367.0,0.0,51.459416399999995,2.659532714188959,0.0,28.166075,-251.0,0.0,0.0,0.0,1500.0,0.5773436427116394,0.0003718966947996205,-0.0812179446220398,0.0,0.0,19.0,1500.0,-0.24275758862495422,0.020432844758033752,,,,,,,,,
19.500554,-0.03751300647854805,0.9676665663719177,28.226018999999997,0.00016593470156065198,0.11431906600562858,-9.755563735961914,0.0,-0.008118430152535439,0.0,0.2379390150308609,-2.7913139,1.3303624391555786,11.0,0.0,0.0,-5.725489130873716e-05,3.0,-94.0,11.0,-0.7774181365966797,0.0,-0.18851585686206818,0.0,1500.0,-5.84,0.009773843811168246,0.4341434836387634,0.0,0.0,0.015945453196763992,0.0,367.0,0.0,51.459416399999995,2.65935818126376,0.0,28.265522999999998,-252.0,0.0,0.0,0.0,1500.0,0.5564857125282288,-0.0012936773128845265,-0.08107881247997284,0.0,0.0,19.0,1500.0,-0.24275758862495422,0.020801246166229248,,,,,,,,,
19.601118999999997,-0.041953086853027344,0.9677759408950806,28.345837999999997,-0.0001680597851265314,0.11397000015522972,-10.033111572265625,0.0,-0.015065088868141174,0.0,0.23754100501537323,-2.7913140999999997,1.4969998598098755,11.0,0.0,0.0,8.291287841609527e-06,3.0,-95.0,11.0,-0.8083088994026184,0.0,0.24366837739944458,0.0,1500.0,-5.8,0.0054105206811824215,0.4675391614437103,0.0,0.0,-0.005443200469017029,0.0,369.0,0.0,51.4594167,2.6598817800393584,0.0,28.366087999999998,-253.0,0.0,0.0,0.0,1500.0,0.5321853160858154,0.0015072720649474262,-0.08147288113832474,0.0,0.0,19.0,1500.0,-0.25662946701049805,0.018607106059789658,,,,,,,,,
19.700685999999997,-0.0496056005358696,0.9676063060760498,28.42604,-8.17811741332122e-06,0.11397000015522972,-9.64331340789795,0.0,-0.019600030034780502,0.0,0.23821908235549927,-2.7913140999999997,1.458442211151123,11.0,0.0,0.0,-3.681541846233353e-05,3.0,-93.0,11.0,-0.756824254989624,0.0,-0.40094995498657227,0.0,1500.0,-5.8,0.013439035240356337,0.4675391614437103,0.0,0.0,-0.0018071604426950216,0.0,367.0,0.0,51.4594167,2.6591836483385607,0.0,28.465654999999998,-253.0,0.0,0.0,0.0,1500.0,0.5099340081214905,-0.00037304225718355865,-0.0805177167057991,0.0,0.0,19.0,1500.0,-0.25662946701049805,0.022510342299938202,,,,,,,,,
19.801111999999996,-0.053878095000982285,0.967731773853302,28.546201,5.157326290007667e-05,0.1137954672300303,-9.994241714477539,0.0,-0.004396415781229734,0.0,0.23777368664741516,-2.7913140999999997,1.6555744409561157,11.0,0.0,0.0,-3.916797359855503e-05,3.0,-92.0,11.0,-0.7413788437843323,0.0,0.5696958899497986,0.0,1500.0,-5.73,0.007853981633974483,0.48980292677879333,0.0,0.0,0.015087380073964596,0.0,366.0,0.0,51.4594169,2.659707247114159,0.0,28.566080999999997,-250.0,0.0,0.0,0.0,1500.0,0.4837893545627594,-0.0002430291514571146,-0.08104389160871506,0.0,0.0,19.0,1500.0,-0.25662946701049805,0.01976758800446987,,,,,,,,,
19.900713000000003,-0.06606346368789673,0.9676494598388672,28.62669,-2.1120727382119693e-05,0.11397000015522972,-9.582101821899414,0.0,-0.010817675851285458,0.0,0.23807412385940552,-2.7913140999999997,1.7369109392166138,11.0,0.0,0.0,4.1788945756692735e-05,3.0,-90.0,11.0,-0.8752389550209045,0.0,-0.410494863986969,0.0,1500.0,-5.73,0.010821041362364843,0.48980292677879333,0.0,0.0,-0.005996682681143284,0.0,367.0,0.0,51.4594169,2.6591836483385607,0.0,28.665682,-247.0,0.0,0.0,0.0,1500.0,0.4592668414115906,0.00012065750078985066,-0.08077732473611832,0.0,0.0,19.0,1500.0,-0.25662946701049805,0.02122158370912075,,,,,,,,,
20.00112,-0.07224873453378677,0.9676513075828552,28.745672,-9.072876512200596e-05,0.1137954672300303,-9.736148834228516,0.0,-0.01295184064656496,0.0,0.23808446526527405,-2.7913140999999997,1.6504831314086914,11.0,0.0,0.0,-1.641632825040967e-05,3.0,-90.0,11.0,-0.7671211957931519,0.0,0.09300396591424942,0.0,1500.0,-5.67,0.010471975511965976,0.512066662311554,0.0,0.0,-0.0008193629328161478,0.0,371.0,0.0,51.459417099999996,2.6591836483385607,0.0,28.766088999999997,-245.0,0.0,0.0,0.0,1500.0,0.430266797542572,0.0008883512169812469,-0.08076430857181549,0.0,0.0,19.0,1500.0,-0.25662946701049805,0.02106894738972187,,,,,,,,,
20.100558999999997,-0.07889024168252945,0.967595100402832,28.82601,6.624084935599037e-05,0.1137954672300303,-9.80164909362793,0.0,-0.018553048372268677,0.0,0.23831167817115784,-2.7913140999999997,1.2223701477050781,11.0,0.0,0.0,-0.00011483941869734653,3.0,-89.0,11.0,-0.7928634881973267,0.0,0.34945306181907654,0.0,1500.0,-5.67,0.012915436464758038,0.512066662311554,0.0,0.0,0.014139985665678978,0.0,371.0,0.0,51.459417099999996,2.659009115413361,0.0,28.865527999999998,-245.0,0.0,0.0,0.0,1500.0,0.4038058817386627,-0.0005486483751848271,-0.08045589923858643,0.0,0.0,19.0,1500.0,-0.25662946701049805,0.02223336324095726,,,,,,,,,
20.20111,-0.08873840421438217,0.9675480723381042,28.945735,1.3878752073985854e-06,0.11362093430483085,-9.692440032958984,0.0,-0.013128967955708504,0.0,0.23852182924747467,-2.791314,1.6095776557922363,11.0,0.0,0.0,-2.3177679602118608e-05,3.0,-89.0,11.0,-0.7465273141860962,0.0,-0.32031989097595215,0.0,1500.0,-5.55,0.015707963267948967,0.5677261352539062,0.0,0.0,-0.0032354891300201416,0.0,372.0,0.0,51.459417599999995,2.6586600495629624,0.0,28.966078999999997,-244.0,0.0,0.0,0.0,1500.0,0.372079074382782,0.0003176443778299979,-0.07999733090400696,0.0,0.0,19.0,1500.0,-0.24969352781772614,0.023632308468222618,,,,,,,,,
20.300671,-0.09576740115880966,0.9675780534744263,29.026488999999998,2.1426326905217273e-05,0.11327186845443199,-9.870250701904297,0.0,-0.011362745426595211,0.0,0.23844748735427856,-2.791314,1.4504673480987549,11.0,0.0,0.0,3.534096771220815e-05,3.0,-89.0,11.0,-0.8906843066215515,0.0,0.10049127042293549,0.0,1500.0,-5.55,0.015009831567151233,0.5677261352539062,0.0,0.0,0.010534207336604595,0.0,372.0,0.0,51.459417599999995,2.658834582488162,0.0,29.06564,-246.0,0.0,0.0,0.0,1500.0,0.3416309952735901,-1.8858074657361156e-05,-0.07998417317867279,0.0,0.0,19.0,1500.0,-0.24969352781772614,0.023198796436190605,,,,,,,,,
20.401106,-0.10934420675039291,0.9675770998001099,29.145661999999998,1.6751968389898865e-05,0.11327186845443199,-9.659669876098633,0.0,-0.00907080341130495,0.0,0.23845000565052032,-2.7913137999999997,1.6940882205963135,11.0,0.0,0.0,2.3240432692227172e-05,3.0,-90.0,11.0,-0.6641519069671631,0.0,-0.06969466805458069,0.0,1500.0,-5.53,0.014835298641951801,0.5899899005889893,0.0,0.0,0.004483779892325401,0.0,373.0,0.0,51.4594178,2.658834582488162,0.0,29.166075,-250.0,0.0,0.0,0.0,1500.0,0.3046185076236725,-0.00010883989412639995,-0.07999995350837708,0.0,0.0,19.0,1500.0,-0.2358216643333435,0.02315678261220455,,,,,,,,,
20.500658,-0.12216447293758392,0.967573344707489,29.226015999999998,6.756916678098096e-05,0.11344640137963143,-9.479585647583008,0.0,-0.006640935782343149,0.0,0.23845650255680084,-2.7913137999999997,1.7666025161743164,11.0,0.0,0.0,3.739988268063008e-05,3.0,-90.0,11.0,-0.7671211957931519,0.0,-0.15787753462791443,0.0,1500.0,-5.53,0.014660765716752368,0.5899899005889893,0.0,0.0,0.0032207609619945288,0.0,373.0,0.0,51.4594178,2.658834582488162,0.0,29.265627,-249.0,0.0,0.0,0.0,1500.0,0.2729363441467285,-0.000397611186101875,-0.0800551101565361,0.0,0.0,19.0,1500.0,-0.2358216643333435,0.02305392175912857,,,,,,,,,
20.601104,-0.13055837154388428,0.9676265716552734,29.345847,6.589056987655517e-05,0.11327186845443199,-9.603544235229492,0.0,-0.011686345562338829,0.0,0.23826172947883606,-2.7913139,1.606271743774414,11.0,0.0,0.0,-2.742322025545183e-05,3.0,-92.0,11.0,-0.756824254989624,0.0,-0.1222444623708725,0.0,1500.0,-5.47,0.011519173063162575,0.6122536659240723,0.0,0.0,0.014872732572257519,0.0,371.0,0.0,51.459418,2.659009115413361,0.0,29.366073,-250.0,0.0,0.0,0.0,1500.0,0.23421958088874817,-0.000724554326373764,-0.08040770888328552,0.0,0.0,19.0,1500.0,-0.24275758862495422,0.021558156237006187,,,,,,,,,
20.70064,-0.1335783302783966,0.9676747918128967,29.425998999999997,-0.00012465776900438008,0.11327186845443199,-9.701539993286133,0.0,-0.01109569612890482,0.0,0.2380908876657486,-2.7913139,1.6209537982940674,11.0,0.0,0.0,9.311376859395786e-05,3.0,-94.0,11.0,-0.7413788437843323,0.0,0.035891447216272354,0.0,1500.0,-5.47,0.009599310885968814,0.6122536659240723,0.0,0.0,-0.0020059035159647465,0.0,370.0,0.0,51.459418,2.6591836483385607,0.0,29.465608999999997,-251.0,0.0,0.0,0.0,1500.0,0.201806902885437,0.0011948273531012129,-0.08059722185134888,0.0,0.0,19.0,1500.0,-0.24275758862495422,0.02055310644209385,,,,,,,,,
20.801228000000002,-0.14337295293807983,0.967568039894104,29.546143999999998,9.206759117519927e-06,0.11327186845443199,-9.73730754852295,0.0,-0.0033202574122697115,0.0,0.23849274218082428,-2.7913137999999997,1.6695928573608398,11.0,0.0,0.0,9.599029628589822e-05,3.0,-92.0,11.0,-0.844348132610321,0.0,-0.14719420671463013,0.0,1500.0,-5.41,0.013439035240356337,0.6345174312591553,0.0,0.0,0.004400771576911211,0.0,367.0,0.0,51.459418199999995,2.6586600495629624,0.0,29.566197,-249.0,0.0,0.0,0.0,1500.0,0.16215841472148895,-0.00019564434086415843,-0.0801643431186676,0.0,0.0,19.0,1500.0,-0.2358216643333435,0.022518806159496307,,,,,,,,,
20.900703,-0.15072138607501984,0.9676044583320618,29.626603,-4.678961018142235e-05,0.11344640137963143,-9.554119110107422,0.0,-0.007611672393977642,0.0,0.23834699392318726,-2.7913137999999997,1.6433908939361572,11.0,0.0,0.0,6.530444362077412e-05,3.0,-91.0,11.0,-0.7207850217819214,0.0,0.14930696785449982,0.0,1500.0,-5.41,0.011344640137963142,0.6345174312591553,0.0,0.0,0.007435694802552462,0.0,368.0,0.0,51.459418199999995,2.6586600495629624,0.0,29.665671999999997,-246.0,0.0,0.0,0.0,1500.0,0.1293599158525467,0.00033546779148481334,-0.0804431214928627,0.0,0.0,19.0,1500.0,-0.2358216643333435,0.021477533504366875,,,,,,,,,
21.001174999999996,-0.16007718443870544,0.967505693435669,29.745652999999997,-5.238879807673947e-06,0.1137954672300303,-9.241138458251953,0.0,-0.004044532775878906,0.0,0.2386736273765564,-2.791314,1.976940393447876,11.0,0.0,0.0,5.676092482828861e-05,3.0,-89.0,11.0,-0.7516757845878601,0.0,-0.07578832656145096,0.0,1500.0,-5.33,0.014311699866353503,0.6679130792617798,0.0,0.0,-0.00033217715099453926,0.0,369.0,0.0,51.4594185,2.6583109837125636,0.0,29.766143999999997,-246.0,0.0,0.0,0.0,1500.0,0.08868113905191422,-0.00021174253522809414,-0.08025293797254562,0.0,0.0,18.0,1500.0,-0.24969352781772614,0.022961895912885666,,,,,,,,,
21.100665999999997,-0.1692606806755066,0.967520534992218,29.826037999999997,8.477928860401564e-05,0.11362093430483085,-9.68817138671875,0.0,-0.009797181002795696,0.0,0.23863130807876587,-2.791314,1.7287931442260742,11.0,0.0,0.0,-4.704446270181468e-05,3.0,-88.0,11.0,-0.9782082438468933,0.0,-0.02165341190993786,0.0,1500.0,-5.33,0.013264502315156905,0.6679130792617798,0.0,0.0,0.007162601221352816,0.0,370.0,0.0,51.4594185,2.6583109837125636,0.0,29.865634999999997,-245.0,0.0,0.0,0.0,1500.0,0.05476527661085129,-9.695567592640661e-05,-0.08035419881343842,0.0,0.0,18.0,1500.0,-0.24969352781772614,0.022416070103645325,,,,,,,,,
21.201102,-0.1761838048696518,0.967545211315155,29.945819999999998,1.1044765328649855e-05,0.11362093430483085,-9.65517807006836,0.0,-0.01284534577280283,0.0,0.23852890729904175,-2.7913142,1.8123599290847778,11.0,0.0,0.0,-9.408425422492903e-06,3.0,-91.0,11.0,-0.8906843066215515,0.0,-0.19263096153736115,0.0,1500.0,-5.19,0.012566370614359171,0.7124406099319458,0.0,0.0,0.0014503602869808674,0.0,367.0,0.0,51.459418899999996,2.6584855166377626,0.0,29.966071,-247.0,0.0,0.0,0.0,1500.0,0.011861258186399937,0.00022629821251460522,-0.0804472416639328,0.0,0.0,19.0,1500.0,-0.26356539130210876,0.022103065624833107,,,,,,,,,
