time_index,velocity_z,quaternion_3,time_actual,axis_rate_yaw,attitude_pitch,acceleration_z,wind_y,velocity_x,servos_4,quaternion_0,global_position_longitude,acceleration_x,mode_0,airspeed_0,servos_6,axis_rate_pitch,mode_2,magnetometer_1,mode_1,altitude_baro,wind_x,acceleration_y,servos_3,tx_controls_3,altitude_gps,attitude_roll,position_x,servos_0,servos_2,velocity_y,tx_controls_5,magnetometer_2,tx_controls_7,global_position_latitude,attitude_yaw,tx_controls_4,time_flight,magnetometer_0,servos_7,servos_1,tx_controls_6,tx_controls_1,position_z,axis_rate_roll,quaternion_1,tx_controls_2,servos_5,gps_sat_count_0,tx_controls_0,position_y,quaternion_2,battery_0,current_1,rpm_0,rpm_1,current_2,current_3,current_0,battery_1,airspeed_1
0.0,0.0,0.0,7.259392999999999,3.7516168413286495e-05,-0.05305800926062762,-9.69283390045166,0.0,0.0,0.0,1.0,-2.7913561,1.464723825454712,5.0,0.0,0.0,-4.1163450749934074e-05,1.0,-76.0,5.0,-0.1392391324043274,0.0,-0.39737722277641296,0.0,1603.0,7.8,0.008028514559173916,0.0,0.0,0.0,0.0,1500.0,376.0,1500.0,51.459522899999996,0.0,1417.0,7.298895,-246.0,0.0,0.0,1500.0,1569.0,0.0,-0.00044813055875398626,0.0,1490.0,0.0,0.0,1000.0,0.0,0.0,,,,,,,,,
0.09995300000000018,0.0,0.0,7.379066,-4.8727070439974454e-05,-0.05305800926062762,-9.715158462524414,0.0,0.0,0.0,1.0,-2.7913561,1.4218370914459229,5.0,0.0,0.0,-1.7402076993341197e-05,1.0,-76.0,5.0,-0.07219807058572769,0.0,0.12136588990688324,0.0,1603.0,7.8,0.008028514559173916,0.0,0.0,0.0,0.0,1500.0,375.0,1500.0,51.459522899999996,0.0,1417.0,7.398848,-244.0,0.0,0.0,1500.0,1569.0,0.0,0.0003338833861863857,0.0,1490.0,0.0,0.0,1000.0,0.0,0.0,,,,,,,,,
0.19990599999999947,0.0,0.0,7.459098999999999,7.18983599346496e-05,-0.05305800926062762,-9.69952392578125,0.0,0.0,0.0,1.0,-2.7913561,1.4017690420150757,5.0,0.0,0.0,-1.0918291997035878e-05,1.0,-76.0,5.0,0.02578502520918846,0.0,-0.38237661123275757,0.0,1602.0,7.8,0.008028514559173916,0.0,0.0,0.0,0.0,1500.0,376.0,1500.0,51.459522899999996,0.0,1418.0,7.498800999999999,-244.0,0.0,0.0,1500.0,1568.0,0.0,-0.0005032824403051956,0.0,1491.0,0.0,0.0,1000.0,0.0,0.0,,,,,,,,,
0.30000999999999944,0.0,0.0,7.579578,-4.320083237696146e-05,-0.05305800926062762,-9.724088668823242,0.0,0.0,0.0,1.0,-2.7913561,1.3809843063354492,5.0,0.0,0.0,-3.071463557833368e-06,1.0,-76.0,5.0,-0.1959661841392517,0.0,0.009147215634584427,0.0,1603.0,7.8,0.008028514559173916,0.0,0.0,0.0,0.0,1501.0,378.0,1500.0,51.459522899999996,0.0,1417.0,7.598904999999999,-244.0,0.0,0.0,1500.0,1568.0,0.0,0.00037086592272096887,0.0,1490.0,0.0,0.0,1000.0,0.0,0.0,,,,,,,,,
0.400004,0.0,0.0,7.659723,6.0280921101055955e-05,-0.05305800926062762,-9.704719543457031,0.0,0.0,0.0,1.0,-2.7913561,1.4000128507614136,5.0,0.0,0.0,-4.8709264491936046e-06,1.0,-75.0,5.0,-0.056727055460214615,0.0,-0.32128483057022095,0.0,1603.0,7.8,0.008028514559173916,0.0,0.0,0.0,0.0,1500.0,378.0,1500.0,51.459522899999996,0.0,1417.0,7.698899,-245.0,0.0,0.0,1500.0,1569.0,0.0,-0.0005030756812166591,0.0,1490.0,0.0,0.0,1000.0,0.0,0.0,,,,,,,,,
0.5000260000000001,0.0,0.0,7.779128999999999,-3.145559139449851e-05,-0.05305800926062762,-9.716351509094238,0.0,0.0,0.0,1.0,-2.7913561,1.3939540386199951,5.0,0.0,0.0,-6.493196181969771e-07,1.0,-76.0,5.0,-0.2011231929063797,0.0,-0.04510107636451721,0.0,1603.0,7.8,0.008028514559173916,0.0,0.0,0.0,0.0,1500.0,379.0,1500.0,51.459522899999996,0.0,1417.0,7.798921,-244.0,0.0,0.0,1500.0,1568.0,0.0,0.0003373108081903648,0.0,1491.0,0.0,0.0,1000.0,0.0,0.0,,,,,,,,,
0.5999840000000001,0.0,0.0,7.8590539999999995,4.348307803838807e-05,-0.05305800926062762,-9.692645072937012,0.0,0.0,0.0,1.0,-2.7913561,1.4057198762893677,5.0,0.0,0.0,-1.3057585170675546e-05,1.0,-76.0,5.0,-0.3403623402118683,0.0,-0.2922949492931366,0.0,1602.0,7.8,0.008028514559173916,0.0,0.0,0.0,0.0,1500.0,380.0,1500.0,51.459522899999996,0.0,1418.0,7.898879,-244.0,0.0,0.0,1500.0,1568.0,0.0,-0.0005063135090375651,0.0,1491.0,0.0,0.0,1000.0,0.0,0.0,,,,,,,,,
0.6999939999999993,0.0,0.0,7.979063,-3.858380602753566e-05,-0.05305800926062762,-9.749371528625488,0.0,0.0,0.0,1.0,-2.7913561,1.4271111488342285,5.0,0.0,0.0,-2.3493810103556245e-05,1.0,-75.0,5.0,-0.21143721044063568,0.0,-0.03939483314752579,0.0,1602.0,7.8,0.008028514559173916,0.0,0.0,0.0,0.0,1500.0,376.0,1500.0,51.459522899999996,0.0,1418.0,7.998888999999999,-242.0,0.0,0.0,1500.0,1568.0,0.0,0.00039250384650353745,0.0,1491.0,0.0,0.0,1000.0,0.0,0.0,,,,,,,,,
0.7998259999999995,0.0,0.0,8.05951,5.2662791457917547e-05,-0.05305800926062762,-9.668325424194336,0.0,0.0,0.0,1.0,-2.7913561,1.4580148458480835,5.0,0.0,0.0,-3.282771508864048e-05,1.0,-76.0,5.0,-0.15986715257167816,0.0,-0.1703888475894928,0.0,1603.0,7.8,0.008028514559173916,0.0,0.0,0.0,0.0,1500.0,377.0,1500.0,51.459522899999996,0.0,1417.0,8.098721,-243.0,0.0,0.0,1500.0,1568.0,0.0,-0.0005957807998998191,0.0,1491.0,0.0,0.0,1000.0,0.0,0.0,,,,,,,,,
0.9000179999999993,0.0,0.0,8.179131,-5.384200908500149e-05,-0.05305800926062762,-9.636452674865723,0.0,0.0,0.0,1.0,-2.7913561,1.4042296409606934,5.0,0.0,0.0,2.392740937105537e-06,1.0,-76.0,5.0,-0.1908091902732849,0.0,-0.2680228054523468,0.0,1603.0,7.8,0.008028514559173916,0.0,0.0,0.0,0.0,1500.0,375.0,1500.0,51.459522899999996,0.0,1417.0,8.198913,-243.0,0.0,0.0,1500.0,1568.0,0.0,0.0004975165274968626,0.0,1491.0,0.0,0.0,1000.0,0.0,0.0,,,,,,,,,
1.0000509999999991,0.0,0.0,8.259449,4.488044519672007e-05,-0.05305800926062762,-9.649816513061523,0.0,0.0,0.0,1.0,-2.7913561,1.4025911092758179,5.0,0.0,0.0,-2.8938350795291834e-06,1.0,-76.0,5.0,-0.22690822184085846,0.0,-0.14785949885845184,0.0,1602.0,7.8,0.008028514559173916,0.0,0.0,0.0,0.0,1500.0,374.0,1500.0,51.459522899999996,0.0,1418.0,8.298945999999999,-244.0,0.0,0.0,1500.0,1568.0,0.0,-0.00045795636181590144,0.0,1491.0,0.0,0.0,1000.0,0.0,0.0,,,,,,,,,
1.099803999999999,0.0,0.0,8.379125,-5.35634532280637e-05,-0.05305800926062762,-9.736166000366211,0.0,0.0,0.0,1.0,-2.7913561,1.441264033317566,5.0,0.0,0.0,-2.16842495217454e-05,1.0,-76.0,5.0,-0.263007253408432,0.0,-0.41944658756256104,0.0,1602.0,7.8,0.008028514559173916,0.0,0.0,0.0,0.0,1500.0,375.0,1500.0,51.459522899999996,0.0,1418.0,8.398698999999999,-243.0,0.0,0.0,1500.0,1568.0,0.0,0.00036842197177774515,0.0,1491.0,0.0,0.0,1000.0,0.0,0.0,,,,,,,,,
1.2000720000000005,0.0,0.0,8.459071999999999,2.2480497545814524e-05,-0.05305800926062762,-9.57455062866211,0.0,0.0,0.0,1.0,-2.7913561,1.3368680477142334,5.0,0.0,0.0,4.396859019842627e-07,1.0,-75.0,5.0,-0.2011231929063797,0.0,-0.16648134589195251,0.0,1603.0,7.8,0.008028514559173916,0.0,0.0,0.0,0.0,1501.0,377.0,1500.0,51.459522899999996,0.0,1417.0,8.498967,-242.0,0.0,0.0,1500.0,1568.0,0.0,-0.00019639550053392613,0.0,1490.0,0.0,0.0,1000.0,0.0,0.0,,,,,,,,,
1.3000369999999997,0.0,0.0,8.579532,2.115148726656695e-05,-0.05305800926062762,-9.6585693359375,0.0,0.0,0.0,1.0,-2.7913561,1.493091106414795,5.0,0.0,0.0,-6.026974603239489e-06,1.0,-76.0,5.0,-0.1340821385383606,0.0,-0.23635582625865936,0.0,1603.0,7.8,0.008028514559173916,0.0,0.0,0.0,0.0,1500.0,374.0,1500.0,51.459522899999996,0.0,1417.0,8.598932,-243.0,0.0,0.0,1501.0,1568.0,0.0,-0.00021565280147145798,0.0,1490.0,0.0,0.0,1000.0,0.0,0.0,,,,,,,,,
1.4000589999999988,0.0,0.0,8.659122,-4.085559183113629e-05,-0.05305800926062762,-9.649810791015625,0.0,0.0,0.0,1.0,-2.7913561,1.557776689529419,5.0,0.0,0.0,4.3728421591265166e-05,1.0,-76.0,5.0,-0.1340821385383606,0.0,-0.1400679349899292,0.0,1602.0,7.8,0.008028514559173916,0.0,0.0,0.0,0.0,1500.0,376.0,1500.0,51.459522899999996,0.0,1418.0,8.698953999999999,-242.0,0.0,0.0,1500.0,1568.0,0.0,0.00014826926680375202,0.0,1491.0,0.0,0.0,1000.0,0.0,0.0,,,,,,,,,
1.5000109999999989,0.0,0.0,8.779103,-2.6775899323682768e-05,-0.05305800926062762,-9.729620933532715,0.0,0.0,0.0,1.0,-2.7913561,1.301015853881836,5.0,0.0,0.0,7.890516049443025e-05,1.0,-76.0,5.0,-0.17533817887306213,0.0,-0.378648966550827,0.0,1602.0,7.8,0.008028514559173916,0.0,0.0,0.0,0.0,1500.0,374.0,1500.0,51.459522899999996,0.0,1418.0,8.798905999999999,-243.0,0.0,0.0,1500.0,1568.0,0.0,-8.48551490337483e-05,0.0,1491.0,0.0,0.0,1000.0,0.0,0.0,,,,,,,,,
1.6001159999999999,0.0,0.0,8.859122,6.346154069773998e-05,-0.05305800926062762,-9.74840259552002,0.0,0.0,0.0,1.0,-2.7913561,1.2953271865844727,5.0,0.0,0.0,3.119381845885897e-05,1.0,-75.0,5.0,-0.22690822184085846,0.0,0.11186325550079346,0.0,1603.0,7.8,0.008028514559173916,0.0,0.0,0.0,0.0,1500.0,377.0,1500.0,51.459522899999996,0.0,1417.0,8.899011,-242.0,0.0,0.0,1501.0,1568.0,0.0,5.908652163523828e-05,0.0,1490.0,0.0,0.0,1000.0,0.0,0.0,,,,,,,,,
1.6998759999999997,0.0,0.0,8.979103,0.0001393950431884642,-0.05305800926062762,-9.769377708435059,0.0,0.0,0.0,1.0,-2.7913561,1.2147281169891357,5.0,0.0,0.0,1.9820382169903095e-05,1.0,-76.0,5.0,-0.2784782648086548,0.0,-0.5740311741828918,0.0,1603.0,7.8,0.008028514559173916,0.0,0.0,0.0,0.0,1500.0,376.0,1501.0,51.459522899999996,0.0,1417.0,8.998771,-243.0,0.0,0.0,1500.0,1569.0,0.0,-0.0001654767106739694,0.0,1490.0,0.0,0.0,1000.0,0.0,0.0,,,,,,,,,
1.800008,0.0,0.0,9.059529999999999,-6.819975355538773e-05,-0.05305800926062762,-9.862065315246582,0.0,0.0,0.0,1.0,-2.7913561,1.1639502048492432,5.0,0.0,0.0,4.6095324499732145e-06,1.0,-76.0,5.0,-0.22690822184085846,0.0,-0.2034260779619217,0.0,1603.0,7.8,0.008028514559173916,0.0,0.0,0.0,0.0,1500.0,373.0,1500.0,51.459522899999996,0.0,1417.0,9.098903,-243.0,0.0,0.0,1500.0,1568.0,0.0,0.00041392103220258997,0.0,1491.0,0.0,0.0,1000.0,0.0,0.0,,,,,,,,,
1.9000050000000002,0.0,0.0,9.179065,2.241890259918538e-05,-0.05305800926062762,-9.658605575561523,0.0,0.0,0.0,1.0,-2.7913561,1.3662047386169434,5.0,0.0,0.0,-8.017428256480782e-05,1.0,-76.0,5.0,0.08509058505296707,0.0,-0.4033324122428894,0.0,1602.0,7.8,0.008028514559173916,0.0,0.0,0.0,0.0,1500.0,377.0,1500.0,51.459522899999996,0.0,1418.0,9.1989,-242.0,0.0,0.0,1500.0,1568.0,0.0,-0.0006657208976935616,0.0,1491.0,0.0,0.0,1000.0,0.0,0.0,,,,,,,,,
1.9998899999999988,0.0,0.0,9.259445,-7.208463817007628e-05,-0.05305800926062762,-9.792634963989258,0.0,0.0,0.0,1.0,-2.7913561,1.1626830101013184,5.0,0.0,0.0,1.033686434966914e-05,1.0,-75.0,5.0,-0.14439614117145538,0.0,-0.2662334740161896,0.0,1603.0,7.8,0.008028514559173916,0.0,0.0,0.0,0.0,1500.0,372.0,1501.0,51.459522899999996,0.0,1417.0,9.298784999999999,-242.0,0.0,0.0,1500.0,1569.0,0.0,0.0004425193251505678,0.0,1490.0,0.0,0.0,1000.0,0.0,0.0,,,,,,,,,
2.1000309999999995,0.0,0.0,9.379107,-3.848307599045546e-05,-0.05305800926062762,-9.755925178527832,0.0,0.0,0.0,1.0,-2.7913561,1.3564229011535645,5.0,0.0,0.0,-3.300994998104252e-05,1.0,-75.0,5.0,-0.09282609075307846,0.0,-0.2098875194787979,0.0,1603.0,7.8,0.008028514559173916,0.0,0.0,0.0,0.0,1500.0,376.0,1500.0,51.459522899999996,0.0,1417.0,9.398926,-243.0,0.0,0.0,1500.0,1569.0,0.0,-3.680658406259929e-05,0.0,1490.0,0.0,0.0,1000.0,0.0,0.0,,,,,,,,,
2.200006,0.0,0.0,9.459361,6.430128005720732e-05,-0.05305800926062762,-9.769726753234863,0.0,0.0,0.0,1.0,-2.7913561,1.373974084854126,5.0,0.0,0.0,-6.488282961441399e-06,1.0,-76.0,5.0,-0.1392391324043274,0.0,-0.004171126056462526,0.0,1602.0,7.8,0.008028514559173916,0.0,0.0,0.0,0.0,1500.0,376.0,1500.0,51.459522899999996,0.0,1418.0,9.498901,-242.0,0.0,0.0,1500.0,1568.0,0.0,-0.0008213801276840223,0.0,1491.0,0.0,0.0,1000.0,0.0,0.0,,,,,,,,,
2.299942999999999,0.0,0.0,9.579521999999999,-6.348927112266475e-05,-0.05305800926062762,-9.596783638000488,0.0,0.0,0.0,1.0,-2.7913561,1.4202935695648193,5.0,0.0,0.0,-1.7527113820674562e-05,1.0,-77.0,5.0,-0.23722222447395325,0.0,-0.5239500999450684,0.0,1602.0,7.8,0.008028514559173916,0.0,0.0,0.0,0.0,1500.0,375.0,1500.0,51.459522899999996,0.0,1418.0,9.598837999999999,-242.0,0.0,0.0,1500.0,1568.0,0.0,0.0005241946266832851,0.0,1491.0,0.0,0.0,1000.0,0.0,0.0,,,,,,,,,
2.400005,0.0,0.0,9.659143,5.580174633497177e-05,-0.05305800926062762,-9.767112731933594,0.0,0.0,0.0,1.0,-2.7913561,1.533190369606018,5.0,0.0,0.0,-2.8397735006632986e-05,1.0,-76.0,5.0,-0.07735507190227509,0.0,0.3433755338191986,0.0,1602.0,7.8,0.008028514559173916,0.0,0.0,0.0,0.0,1500.0,376.0,1500.0,51.459522899999996,0.0,1418.0,9.6989,-242.0,0.0,0.0,1500.0,1568.0,0.0,-0.00045939323995335764,0.0,1491.0,0.0,0.0,1000.0,0.0,0.0,,,,,,,,,
2.4999970000000005,0.0,0.0,9.779067,-3.348107462114785e-05,-0.05305800926062762,-9.513654708862305,0.0,0.0,0.0,1.0,-2.7913561,0.9857962131500244,5.0,0.0,0.0,7.509776177400687e-05,1.0,-76.0,5.0,-0.24753624200820923,0.0,-0.5857277512550354,0.0,1602.0,7.8,0.008028514559173916,0.0,0.0,0.0,0.0,1500.0,377.0,1500.0,51.459522899999996,0.0,1418.0,9.798892,-243.0,0.0,0.0,1500.0,1568.0,0.0,0.0010362249269910105,0.0,1491.0,0.0,0.0,1000.0,0.0,0.0,,,,,,,,,
2.600016,0.0,0.0,9.859375,-3.995273162020991e-05,-0.05305800926062762,-9.66434097290039,0.0,0.0,0.0,1.0,-2.7913561,0.8367953896522522,5.0,0.0,0.0,-6.441828099425803e-05,1.0,-75.0,5.0,-0.1289251297712326,0.0,-0.2068212628364563,0.0,1602.0,7.8,0.008028514559173916,0.0,0.0,0.0,0.0,1500.0,376.0,1500.0,51.459522899999996,0.0,1418.0,9.898911,-242.0,0.0,0.0,1500.0,1568.0,0.0,-0.0006314492133784418,0.0,1491.0,0.0,0.0,1000.0,0.0,0.0,,,,,,,,,
2.6999899999999997,0.0,0.0,9.979106,0.00012337638280410465,-0.05305800926062762,-9.726810455322266,0.0,0.0,0.0,1.0,-2.7913561,1.349791407585144,5.0,0.0,0.0,-3.0119471739751826e-05,1.0,-77.0,5.0,-0.28363528847694397,0.0,-0.3818832039833069,0.0,1602.0,7.8,0.008028514559173916,0.0,0.0,0.0,0.0,1500.0,374.0,1500.0,51.459522899999996,0.0,1418.0,9.998885,-243.0,0.0,0.0,1500.0,1568.0,0.0,-0.0007039407053210077,0.0,1491.0,0.0,0.0,1000.0,0.0,0.0,,,,,,,,,
2.8000679999999996,0.0,0.0,10.059967,-8.587740367824955e-05,-0.05305800926062762,-9.927371978759766,0.0,0.0,0.0,1.0,-2.7895806,1.2616691589355469,5.0,0.0,0.0,1.7063035569317703e-05,1.0,-76.0,5.0,-0.18049517273902893,0.0,-0.5649564862251282,0.0,1602.0,-1050.51,0.008028514559173916,0.0,0.0,0.0,0.0,1500.0,376.0,1500.0,51.4605822,0.0,1418.0,10.098963,-242.0,0.0,0.0,1500.0,1568.0,0.0,0.00040458221831461753,0.0,1491.0,0.0,4.0,1000.0,0.0,0.0,,,,,,,,,
2.900041999999999,0.0,0.0,10.179309,5.1478376407990874e-05,-0.05305800926062762,-9.588109016418457,0.0,0.0,0.0,1.0,-2.7895806,1.6394304037094116,5.0,0.0,0.0,-2.0510936394575833e-05,1.0,-76.0,5.0,-0.18565218150615692,0.0,0.09385810792446136,0.0,1603.0,-1050.51,0.008028514559173916,0.0,0.0,0.0,0.0,1501.0,378.0,1500.0,51.4605822,0.0,1417.0,10.198936999999999,-243.0,0.0,0.0,1500.0,1568.0,0.0,-0.00039014201402849663,0.0,1490.0,0.0,4.0,1000.0,0.0,0.0,,,,,,,,,
3.0018189999999993,0.0,0.0,10.259504999999999,-3.7658571805276824e-07,-0.05305800926062762,-9.951869010925293,0.0,0.0,0.0,1.0,-2.7895806,1.4901832342147827,5.0,0.0,0.0,9.772441499509352e-05,1.0,-78.0,5.0,-0.1340821385383606,0.0,-0.10139955580234528,0.0,1603.0,-1050.51,0.008028514559173916,0.0,0.0,0.0,0.0,1500.0,376.0,1500.0,51.4605822,0.0,1417.0,10.300714,-243.0,0.0,0.0,1500.0,1569.0,0.0,7.178101765004704e-05,0.0,1490.0,0.0,4.0,1000.0,0.0,0.0,,,,,,,,,
3.1004620000000003,0.0,0.0,10.379997999999999,-6.164519380150586e-05,-0.05305800926062762,-9.448966026306152,0.0,0.0,0.0,1.0,-2.7913292999999997,1.4358702898025513,5.0,0.0,0.0,3.7252794395082425e-05,1.0,-77.0,5.0,-0.37130436301231384,0.0,-0.45396658778190613,0.0,1603.0,7.17,0.008028514559173916,0.0,0.0,0.0,0.0,1500.0,375.0,1500.0,51.4594654,0.0,1417.0,10.399357,-242.0,0.0,0.0,1500.0,1568.0,0.0,0.00034591513967467316,0.0,1491.0,0.0,15.0,1000.0,0.0,0.0,,,,,,,,,
3.200374,0.0,0.0,10.460089,6.28395892036622e-05,-0.05305800926062762,-9.759469985961914,0.0,0.0,0.0,1.0,-2.7913292999999997,1.4358283281326294,5.0,0.0,0.0,1.5105888903446125e-05,1.0,-75.0,5.0,-0.29910629987716675,0.0,0.0431162491440773,0.0,1603.0,7.17,0.008028514559173916,0.0,0.0,0.0,0.0,1501.0,376.0,1500.0,51.4594654,0.0,1417.0,10.499269,-242.0,0.0,0.0,1500.0,1568.0,0.0,-0.0005080248306066919,0.0,1490.0,0.0,15.0,1000.0,0.0,0.0,,,,,,,,,
3.3011040000000005,0.0,0.0,10.580796,-5.139436427362762e-05,-0.05305800926062762,-9.709535598754883,0.0,0.0,0.0,1.0,-2.7913272,1.3518893718719482,5.0,0.0,0.0,1.1146283716028333e-05,1.0,-75.0,5.0,-0.22175121307373047,0.0,-0.20501494407653809,0.0,1603.0,7.55,0.008028514559173916,0.0,0.0,0.0,0.0,1500.0,377.0,1500.0,51.4594641,0.0,1417.0,10.599999,-243.0,0.0,0.0,1501.0,1568.0,0.0,0.000512053674487703,0.0,1490.0,0.0,15.0,1001.0,0.0,0.0,,,,,,,,,
3.400793,0.0,0.0,10.660397999999999,4.006510811066562e-05,-0.05305800926062762,-9.725078582763672,0.0,0.0,0.0,1.0,-2.7913272,1.391678810119629,5.0,0.0,0.0,-1.3522833756495815e-05,1.0,-75.0,5.0,-0.2681642770767212,0.0,0.057934533804655075,0.0,1603.0,7.55,0.008028514559173916,0.0,0.0,0.0,0.0,1500.0,376.0,1500.0,51.4594641,0.0,1417.0,10.699688,-243.0,0.0,0.0,1500.0,1568.0,0.0,-0.0005586309380462584,0.0,1491.0,0.0,15.0,1000.0,0.0,0.0,,,,,,,,,
3.5008049999999997,0.0,0.0,10.780116999999999,-2.9373391646648236e-05,-0.05305800926062762,-9.706854820251465,0.0,0.0,0.0,1.0,-2.7913272,1.3974660634994507,5.0,0.0,0.0,-4.488145806430689e-06,1.0,-76.0,5.0,-0.11345411092042923,0.0,-0.28488248586654663,0.0,1603.0,7.55,0.008028514559173916,0.0,0.0,0.0,0.0,1500.0,374.0,1500.0,51.4594641,0.0,1417.0,10.7997,-242.0,0.0,0.0,1500.0,1568.0,0.0,0.0003129115452599528,0.0,1491.0,0.0,15.0,1000.0,0.0,0.0,,,,,,,,,
3.600759,0.0,0.0,10.859689999999999,5.229573312084542e-05,-0.05305800926062762,-9.710094451904297,0.0,0.0,0.0,1.0,-2.7913235,1.3987396955490112,5.0,0.0,0.0,-7.357954742317409e-06,1.0,-75.0,5.0,-0.3300483226776123,0.0,0.011130783706903458,0.0,1602.0,7.99,0.008028514559173916,0.0,0.0,0.0,0.0,1500.0,376.0,1500.0,51.4594592,0.0,1418.0,10.899654,-242.0,0.0,0.0,1500.0,1568.0,0.0,-0.0003944702034578164,0.0,1491.0,0.0,15.0,1000.0,0.0,0.0,,,,,,,,,
3.7006639999999997,0.0,0.0,10.980107,-4.006721308723523e-05,-0.05305800926062762,-9.715714454650879,0.0,0.0,0.0,1.0,-2.7913235,1.3998868465423584,5.0,0.0,0.0,-9.054498807012867e-06,1.0,-75.0,5.0,-0.3197343051433563,0.0,-0.3040768802165985,0.0,1602.0,7.99,0.008028514559173916,0.0,0.0,0.0,0.0,1500.0,375.0,1500.0,51.4594592,0.0,1418.0,10.999559,-242.0,0.0,0.0,1500.0,1568.0,0.0,0.00020168963851634075,0.0,1491.0,0.0,15.0,1000.0,0.0,0.0,,,,,,,,,
3.800777,0.0,0.0,11.060089,2.9233219712686456e-05,-0.05305800926062762,-9.707124710083008,0.0,0.0,0.0,1.0,-2.7913182,1.3967558145523071,5.0,0.0,0.0,-9.78816035108801e-06,1.0,-75.0,5.0,-0.23206523060798645,0.0,-0.03804343566298485,0.0,1603.0,8.17,0.008028514559173916,0.0,0.0,0.0,0.0,1500.0,375.0,1500.0,51.459454799999996,0.0,1417.0,11.099672,-242.0,0.0,0.0,1500.0,1568.0,0.0,-0.0003072601951918718,0.0,1491.0,0.0,17.0,1000.0,0.0,0.0,,,,,,,,,
3.900836999999999,0.0,0.0,11.180111,4.899400524142007e-06,-0.05305800926062762,-9.727910995483398,0.0,0.0,0.0,1.0,-2.7913182,1.3850001096725464,5.0,0.0,0.0,-1.5902313188825494e-06,1.0,-75.0,5.0,-0.4022463858127594,0.0,-0.33147141337394714,0.0,1602.0,8.17,0.008028514559173916,0.0,0.0,0.0,0.0,1500.0,376.0,1500.0,51.459454799999996,0.0,1418.0,11.199732,-242.0,0.0,0.0,1500.0,1568.0,0.0,0.0001506307904405317,0.0,1491.0,0.0,17.0,1000.0,0.0,0.0,,,,,,,,,
4.000757,0.0,0.0,11.260057,2.4259852932949833e-05,-0.05305800926062762,-9.725468635559082,0.0,0.0,0.0,1.0,-2.7913151,1.3895621299743652,5.0,0.0,0.0,-1.4701221380752841e-05,1.0,-75.0,5.0,-0.28879228234291077,0.0,-0.036853283643722534,0.0,1602.0,8.22,0.008028514559173916,0.0,0.0,0.0,0.0,1500.0,376.0,1500.0,51.459451699999995,0.0,1418.0,11.299652,-243.0,0.0,0.0,1500.0,1568.0,0.0,-0.00020909462099532992,0.0,1491.0,0.0,18.0,1000.0,0.0,0.0,,,,,,,,,
4.100728999999999,0.0,0.0,11.380073999999999,1.027290028848385e-05,-0.05305800926062762,-9.705094337463379,0.0,0.0,0.0,1.0,-2.7913151,1.3912482261657715,5.0,0.0,0.0,-3.4617960072228333e-06,1.0,-76.0,5.0,-0.3197343051433563,0.0,-0.3008192777633667,0.0,1602.0,8.22,0.008028514559173916,0.0,0.0,0.0,0.0,1500.0,377.0,1500.0,51.459451699999995,0.0,1418.0,11.399624,-243.0,0.0,0.0,1500.0,1568.0,0.0,2.505413414493461e-05,0.0,1491.0,0.0,18.0,1000.0,0.0,0.0,,,,,,,,,
4.200794999999999,0.0,0.0,11.459919,3.214136065795364e-05,-0.05305800926062762,-9.72020149230957,0.0,0.0,0.0,1.0,-2.7913105,1.4011374711990356,5.0,0.0,0.0,-1.4223536975343469e-05,1.0,-76.0,5.0,-0.2578502595424652,0.0,-0.05972232669591904,0.0,1603.0,8.34,0.008028514559173916,0.0,0.0,0.0,0.0,1500.0,379.0,1500.0,51.4594477,0.0,1417.0,11.49969,-244.0,0.0,0.0,1501.0,1568.0,0.0,-0.00011440411116821526,0.0,1490.0,0.0,18.0,1001.0,0.0,0.0,,,,,,,,,
4.300796,0.0,0.0,11.580736,1.0193467900440975e-05,-0.05305800926062762,-9.716475486755371,0.0,0.0,0.0,1.0,-2.7913105,1.3950895071029663,5.0,0.0,0.0,-3.3783421183349723e-06,1.0,-76.0,5.0,-0.23206523060798645,0.0,-0.28811559081077576,0.0,1603.0,8.34,0.008028514559173916,0.0,0.0,0.0,0.0,1500.0,376.0,1500.0,51.4594477,0.0,1417.0,11.599691,-243.0,0.0,0.0,1500.0,1569.0,0.0,-4.2919017463635966e-05,0.0,1490.0,0.0,18.0,1000.0,0.0,0.0,,,,,,,,,
4.401223999999999,0.0,-0.0004272274090908468,11.660662,1.1925335341258739e-05,0.08901179185171082,-9.714437484741211,0.0,0.0,0.0,0.9974528551101685,-2.7913082,1.3737523555755615,5.0,0.0,0.0,-2.1940160625914537e-05,1.0,-78.0,5.0,-0.3300483226776123,0.0,-0.08227460831403732,0.0,1602.0,8.290000000000001,0.020071286397934793,0.0,0.0,0.0,0.0,1500.0,378.0,1500.0,51.4594458,0.0,1418.0,11.700118999999999,-244.0,0.0,0.0,1500.0,1568.0,0.0,-4.834199789222069e-05,0.005995569750666618,1491.0,0.0,18.0,1000.0,0.0,0.0710756853222847,,,,,,,,,
4.501263999999999,0.011747254990041256,-0.0004427134117577225,11.780738999999999,-1.5803749591192537e-05,0.08883725892651137,-9.719411849975586,0.0,0.000130432250443846,0.0,0.9974542260169983,-2.7913082,1.3827825784683228,5.0,0.0,0.0,-1.6637870938869354e-05,1.0,-76.0,5.0,-0.2784782648086548,0.0,-0.25398117303848267,0.0,1602.0,8.290000000000001,0.020420352248333655,0.0,0.0,0.0,-0.0039047293830662966,1500.0,376.0,1500.0,51.4594458,6.283010774254387,1418.0,11.800158999999999,-244.0,0.0,0.0,1500.0,1568.0,0.0004274287784937769,-0.0001070619610207306,0.006116355769336224,1491.0,0.0,18.0,1000.0,0.0,0.07104673981666565,,,,,,,,,
4.601265,0.030122991651296616,-0.00034418009454384446,11.860311,5.972307183264874e-06,0.08883725892651137,-9.709321975708008,0.0,-0.0004659005790017545,0.0,0.9974595308303833,-2.7913056999999997,1.3945685625076294,5.0,0.0,0.0,-1.271985935700806e-05,1.0,-75.0,5.0,-0.36614736914634705,0.0,-0.09329564869403839,0.0,1603.0,8.18,0.01937315469713706,0.0,0.0,0.0,-0.010666783899068832,1500.0,377.0,1500.0,51.459442599999996,0.0,1417.0,11.90016,-243.0,0.0,0.0,1500.0,1569.0,0.0019714748486876488,-3.3412901622738667e-06,0.005593548063188791,1490.0,0.0,18.0,1000.0,0.0,0.07101558893918991,,,,,,,,,
4.701449,0.058784306049346924,0.9745590090751648,11.980725999999999,1.046932040667812e-05,0.08901179185171082,-9.704864501953125,0.0,0.0017542896093800664,0.0,0.2124747335910797,-2.7913056999999997,1.3946940898895264,5.0,0.0,0.0,-1.29653187242331e-05,1.0,-76.0,5.0,-0.28879228234291077,0.0,-0.2537979483604431,0.0,1603.0,8.18,0.019547687622336492,0.0,0.0,0.0,-0.004329432267695665,1500.0,375.0,1500.0,51.459442599999996,2.712939789299986,1417.0,12.000344,-242.0,0.0,0.0,1500.0,1569.0,0.06296907365322113,-0.00013519329051780638,-0.06826774030923843,1490.0,0.0,18.0,1000.0,0.0,0.0207081101834774,,,,,,,,,
4.801446,0.07418449223041534,0.9746257662773132,12.061014,1.3405561570051228e-05,0.08901179185171082,-9.72747802734375,0.0,0.004890531301498413,0.0,0.21218417584896088,-2.7913053999999997,1.3899270296096802,5.0,0.0,0.0,-3.287204607806127e-06,1.0,-75.0,5.0,-0.24753624200820923,0.0,-0.10263285040855408,0.0,1602.0,7.930000000000001,0.01884955592153876,0.0,0.0,0.0,0.0056227738969028,1500.0,377.0,1500.0,51.459441399999996,2.713463388075584,1418.0,12.100341,-243.0,0.0,0.0,1500.0,1568.0,0.10904835164546967,2.358852998552746e-05,-0.06834278255701065,1491.0,0.0,18.0,1000.0,0.0,0.020296629518270493,,,,,,,,,
4.901247,0.09154392033815384,0.9747519493103027,12.180738,8.567451725896185e-06,0.08883725892651137,-9.716464042663574,0.0,0.009251454845070839,0.0,0.21162773668766022,-2.7913053999999997,1.4018573760986328,5.0,0.0,0.0,-7.359701100774534e-06,1.0,-75.0,5.0,-0.263007253408432,0.0,-0.2457217276096344,0.0,1602.0,7.930000000000001,0.01884955592153876,0.0,0.0,0.0,0.018572138622403145,1500.0,375.0,1500.0,51.459441399999996,2.71468511855198,1418.0,12.200142,-243.0,0.0,0.0,1500.0,1568.0,0.17181746661663055,-0.0001599756998205011,-0.0682748332619667,1491.0,0.0,18.0,1000.0,0.0,0.02027445286512375,,,,,,,,,
5.001241,0.10073376446962357,0.9748580455780029,12.261038,-1.0267467681241571e-06,0.08866272600131195,-9.715038299560547,0.0,0.012019759975373745,0.0,0.21117717027664185,-2.7913056999999997,1.3909351825714111,5.0,0.0,0.0,-3.394898490514012e-06,1.0,-75.0,5.0,-0.3197343051433563,0.0,-0.10938390344381332,0.0,1603.0,7.8500000000000005,0.01780235837034216,0.0,0.0,0.0,0.02802557311952114,1500.0,377.0,1500.0,51.4594416,2.7155577831779776,1417.0,12.300136,-244.0,0.0,0.0,1500.0,1569.0,0.2079073041677475,8.773440750610329e-06,-0.0683261975646019,1490.0,0.0,18.0,1000.0,0.0,0.019686853513121605,,,,,,,,,
5.101488,0.1112564355134964,0.975009024143219,12.380761999999999,2.2004461970990326e-05,0.08848819307611251,-9.696338653564453,0.0,0.01584623008966446,0.0,0.21050848066806793,-2.7913056999999997,1.3824656009674072,5.0,0.0,0.0,-1.8220699282721613e-06,1.0,-76.0,5.0,-0.252693235874176,0.0,-0.2268521785736084,0.0,1603.0,7.8500000000000005,0.017627825445142728,0.0,0.0,0.0,0.04091880843043327,1500.0,374.0,1500.0,51.4594416,2.716954046579573,1417.0,12.400383,-242.0,0.0,0.0,1500.0,1568.0,0.2559463679790497,-0.00015784231013086047,-0.06827729940414429,1491.0,0.0,18.0,1000.0,0.0,0.019540976732969284,,,,,,,,,
5.201231,0.11650311946868896,0.9751163721084595,12.460552999999999,1.9783164365663907e-06,0.08848819307611251,-9.724128723144531,0.0,0.018231550231575966,0.0,0.2100396752357483,-2.7913058,1.398629069328308,5.0,0.0,0.0,-1.3960666597165652e-06,1.0,-76.0,5.0,-0.28879228234291077,0.0,-0.12979623675346375,0.0,1602.0,7.73,0.016580627893946133,0.0,0.0,0.0,0.04900282248854637,1500.0,376.0,1500.0,51.459441399999996,2.71782671120557,1418.0,12.500126,-243.0,0.0,0.0,1500.0,1568.0,0.283405601978302,3.7943068227123304e-05,-0.06832334399223328,1491.0,0.0,18.0,1000.0,0.0,0.019064918160438538,,,,,,,,,
5.301432,0.12123376131057739,0.9752506613731384,12.581355,1.1573419222222362e-05,0.08831366015091309,-9.710282325744629,0.0,0.022132856771349907,0.0,0.20944003760814667,-2.7913058,1.4000859260559082,5.0,0.0,0.0,1.7804190504887761e-06,1.0,-76.0,5.0,-0.23722222447395325,0.0,-0.20206429064273834,0.0,1603.0,7.73,0.016580627893946133,0.0,0.0,0.0,0.062339235097169876,1500.0,375.0,1500.0,51.459441399999996,2.719048441681966,1417.0,12.600327,-243.0,0.0,0.0,1501.0,1568.0,0.3176131546497345,-0.00018574077557900756,-0.06827335804700851,1490.0,0.0,18.0,1001.0,0.0,0.018969882279634476,,,,,,,,,
5.401259,0.12330950051546097,0.9753378033638,12.660672,-1.212060747512692e-05,0.08831366015091309,-9.708894729614258,0.0,0.023861205205321312,0.0,0.20905138552188873,-2.7913063,1.3870288133621216,5.0,0.0,0.0,-1.019506695117484e-05,1.0,-75.0,5.0,-0.15471014380455017,0.0,-0.15119381248950958,0.0,1603.0,7.62,0.0158824961931484,0.0,0.0,0.0,0.06853025406599045,1500.0,377.0,1500.0,51.459441399999996,2.719746573382764,1417.0,12.700154,-244.0,0.0,0.0,1500.0,1568.0,0.33605679869651794,5.467147957228464e-05,-0.06833360344171524,1491.0,0.0,18.0,1000.0,0.0,0.018557347357273102,,,,,,,,,
5.501403999999999,0.1244131475687027,0.9754155278205872,12.78075,2.9541452488326712e-05,0.08813912722571364,-9.698808670043945,0.0,0.027360493317246437,0.0,0.2087024748325348,-2.7913063,1.398216724395752,5.0,0.0,0.0,-7.81993665238498e-06,1.0,-75.0,5.0,-0.28363528847694397,0.0,-0.1956840604543686,0.0,1602.0,7.62,0.0158824961931484,0.0,0.0,0.0,0.0802905336022377,1500.0,375.0,1500.0,51.459441399999996,2.7204447050835614,1418.0,12.800298999999999,-242.0,0.0,0.0,1500.0,1568.0,0.35567986965179443,-0.00017744419329464103,-0.068292036652565,1491.0,0.0,18.0,1000.0,0.0,0.01854660175740719,,,,,,,,,
5.601239999999999,0.12424445152282715,0.9754706025123596,12.860650999999999,3.194861967713719e-07,0.08813912722571364,-9.716726303100586,0.0,0.02818274311721325,0.0,0.20845703780651093,-2.7913068,1.3855727910995483,5.0,0.0,0.0,-4.54828443843023e-06,1.0,-75.0,5.0,-0.37130436301231384,0.0,-0.15170682966709137,0.0,1603.0,7.5600000000000005,0.015184364492350668,0.0,0.0,0.0,0.08539475500583649,1500.0,376.0,1501.0,51.459441299999995,2.7209683038591597,1417.0,12.900134999999999,-241.0,0.0,0.0,1500.0,1568.0,0.3652888238430023,7.363538009803545e-05,-0.06834203749895096,1490.0,0.0,18.0,1001.0,0.0,0.018225649371743202,,,,,,,,,
5.701485,0.1233285665512085,0.9755280017852783,12.980901999999999,1.8850142390442462e-05,0.08813912722571364,-9.715132713317871,0.0,0.03162982314825058,0.0,0.20819391310214996,-2.7913068,1.4010716676712036,5.0,0.0,0.0,4.270589569737006e-06,1.0,-75.0,5.0,-0.36099034547805786,0.0,-0.17740866541862488,0.0,1603.0,7.5600000000000005,0.015533430342749533,0.0,0.0,0.0,0.09568218886852264,1500.0,374.0,1500.0,51.459441299999995,2.7214919026347584,1417.0,13.00038,-242.0,0.0,0.0,1500.0,1569.0,0.3795683681964874,-0.00020447326278292497,-0.06830386817455292,1490.0,0.0,18.0,1000.0,0.0,0.0183082465082407,,,,,,,,,
5.801411,0.12308021634817123,0.9755755066871643,13.061072,5.335599518977829e-06,0.0879645943005142,-9.710719108581543,0.0,0.03177252784371376,0.0,0.20798029005527496,-2.7913074,1.3940984010696411,5.0,0.0,0.0,-6.7789551325961216e-06,1.0,-76.0,5.0,-0.15986715257167816,0.0,-0.1544780433177948,0.0,1602.0,7.55,0.015009831567151233,0.0,0.0,0.0,0.09913592040538788,1500.0,375.0,1500.0,51.4594421,2.721840968485157,1418.0,13.100306,-242.0,0.0,0.0,1500.0,1568.0,0.38956812024116516,6.219664077148562e-05,-0.06833906471729279,1491.0,0.0,17.0,1000.0,0.0,0.01806584745645523,,,,,,,,,
5.901460999999999,0.12153856456279755,0.9756178855895996,13.180736,2.2131914644985146e-05,0.0879645943005142,-9.71174430847168,0.0,0.03346540778875351,0.0,0.20778486132621765,-2.7913074,1.3930156230926514,5.0,0.0,0.0,-3.819147019310987e-06,1.0,-76.0,5.0,-0.24237923324108124,0.0,-0.1858873963356018,0.0,1602.0,7.55,0.015184364492350668,0.0,0.0,0.0,0.10612541437149048,1500.0,374.0,1500.0,51.4594421,2.722364567260755,1418.0,13.200356,-242.0,0.0,0.0,1500.0,1568.0,0.4006122350692749,-0.00018225035056974807,-0.06830337643623352,1491.0,0.0,17.0,1000.0,0.0,0.018166091293096542,,,,,,,,,
6.001246,0.1189136952161789,0.9756541848182678,13.260964999999999,-1.2640374141367879e-05,0.0879645943005142,-9.705945014953613,0.0,0.03350077196955681,0.0,0.20761989057064056,-2.7913079,1.4005944728851318,5.0,0.0,0.0,9.473106973882001e-07,1.0,-75.0,5.0,-0.4744444489479065,0.0,-0.1796538084745407,0.0,1602.0,7.57,0.014835298641951801,0.0,0.0,0.0,0.10743200778961182,1500.0,376.0,1500.0,51.459442599999996,2.722713633111154,1418.0,13.300141,-241.0,0.0,0.0,1500.0,1568.0,0.4046902060508728,3.122435484193301e-05,-0.06833047419786453,1491.0,0.0,17.0,1000.0,0.0,0.01800093799829483,,,,,,,,,
6.101452999999999,0.1160375252366066,0.9756813645362854,13.380744,2.0114828974476927e-05,0.0879645943005142,-9.716821670532227,0.0,0.034985076636075974,0.0,0.20749221742153168,-2.7913079,1.402786374092102,5.0,0.0,0.0,-1.4235657861179396e-05,1.0,-76.0,5.0,-0.4125604033470154,0.0,-0.16312769055366516,0.0,1602.0,7.57,0.015184364492350668,0.0,0.0,0.0,0.11256485432386398,1500.0,374.0,1500.0,51.459442599999996,2.7228881660363533,1418.0,13.400348,-243.0,0.0,0.0,1500.0,1568.0,0.4124113619327545,-0.00016085340190412543,-0.06830182671546936,1491.0,0.0,17.0,1000.0,0.0,0.018107840791344643,,,,,,,,,
6.201212999999999,0.11485670506954193,0.9757049679756165,13.460547,-1.1670289796953168e-05,0.0879645943005142,-9.71037483215332,0.0,0.034354109317064285,0.0,0.2073851376771927,-2.7913083,1.402820110321045,5.0,0.0,0.0,6.780392144834402e-06,1.0,-75.0,5.0,-0.2578502595424652,0.0,-0.1772182285785675,0.0,1602.0,7.54,0.015009831567151233,0.0,0.0,0.0,0.11222583800554276,1500.0,375.0,1500.0,51.459442499999994,2.723062698961553,1418.0,13.500107999999999,-243.0,0.0,0.0,1500.0,1568.0,0.419968843460083,2.1930019759062284e-05,-0.06830843538045883,1491.0,0.0,18.0,1000.0,0.0,0.018036579713225365,,,,,,,,,
6.301551,0.11265066266059875,0.9757190942764282,13.581335999999999,2.506806843963963e-05,0.0879645943005142,-9.704346656799316,0.0,0.035293448716402054,0.0,0.2073083221912384,-2.7913083,1.3906927108764648,5.0,0.0,0.0,-7.200491421433289e-06,1.0,-76.0,5.0,-0.4125604033470154,0.0,-0.16349424421787262,0.0,1602.0,7.54,0.015184364492350668,0.0,0.0,0.0,0.11501672118902206,1500.0,376.0,1500.0,51.459442499999994,2.7232372318867526,1418.0,13.600446,-242.0,0.0,0.0,1500.0,1568.0,0.42953601479530334,-0.00016850792569814694,-0.06830913573503494,1491.0,0.0,18.0,1000.0,0.0,0.01815253682434559,,,,,,,,,
6.401256999999999,0.11072780191898346,0.9757291674613953,13.661024,7.666067639948395e-06,0.0879645943005142,-9.71865177154541,0.0,0.03482803329825401,0.0,0.20725832879543304,-2.7913088,1.387289047241211,5.0,0.0,0.0,-4.310168615188512e-06,1.0,-75.0,5.0,-0.29394927620887756,0.0,-0.18335071206092834,0.0,1602.0,7.5,0.015184364492350668,0.0,0.0,0.0,0.11332865804433823,1500.0,377.0,1500.0,51.4594428,2.7234117648119516,1418.0,13.700152,-243.0,0.0,0.0,1500.0,1568.0,0.43507832288742065,2.8527607590950595e-05,-0.06832193583250046,1491.0,0.0,18.0,1000.0,0.0,0.01813390478491783,,,,,,,,,
6.501578,0.10810387879610062,0.975740373134613,13.780790999999999,1.2774408930804066e-05,0.0879645943005142,-9.718512535095215,0.0,0.035293690860271454,0.0,0.20720171928405762,-2.7913088,1.38993501663208,5.0,0.0,0.0,-2.0895864682352337e-05,1.0,-75.0,5.0,-0.3145773112773895,0.0,-0.16819259524345398,0.0,1602.0,7.5,0.015533430342749533,0.0,0.0,0.0,0.11482477188110352,1500.0,375.0,1500.0,51.4594428,2.7235862977371514,1418.0,13.800473,-244.0,0.0,0.0,1500.0,1568.0,0.44244229793548584,-0.00013409747547588597,-0.06830303370952606,1491.0,0.0,18.0,1000.0,0.0,0.01824907585978508,,,,,,,,,
6.601371,0.10557477176189423,0.9757490158081055,13.860638,4.3265578692953025e-06,0.0879645943005142,-9.718830108642578,0.0,0.034529462456703186,0.0,0.207161545753479,-2.7913091,1.3933378458023071,5.0,0.0,0.0,-2.1764558644720504e-06,1.0,-75.0,5.0,-0.4847584664821625,0.0,-0.19233331084251404,0.0,1603.0,7.48,0.015533430342749533,0.0,0.0,0.0,0.11314667016267776,1500.0,376.0,1500.0,51.4594427,2.7235862977371514,1417.0,13.900266,-243.0,0.0,0.0,1500.0,1569.0,0.4455980062484741,-1.6863266994186445e-05,-0.0682925134897232,1490.0,0.0,18.0,1000.0,0.0,0.01827700436115265,,,,,,,,,
6.701490999999999,0.10233646631240845,0.9757640361785889,13.980753,9.66338359807985e-06,0.0879645943005142,-9.71330738067627,0.0,0.03441118076443672,0.0,0.20708796381950378,-2.7913091,1.4019731283187866,5.0,0.0,0.0,-1.1704925398395152e-05,1.0,-75.0,5.0,-0.4538164436817169,0.0,-0.14547830820083618,0.0,1603.0,7.48,0.015707963267948967,0.0,0.0,0.0,0.11362667381763458,1500.0,378.0,1500.0,51.4594427,2.723760830662351,1417.0,14.000385999999999,-243.0,0.0,0.0,1500.0,1568.0,0.4517836570739746,-0.00010349999931739494,-0.0682889074087143,1491.0,0.0,18.0,1000.0,0.0,0.018326856195926666,,,,,,,,,
6.8011859999999995,0.10113666951656342,0.97577303647995,14.061036,-5.9951581668460935e-06,0.0879645943005142,-9.722356796264648,0.0,0.033360134810209274,0.0,0.20704244077205658,-2.7913098,1.3976894617080688,5.0,0.0,0.0,-1.4447634690865208e-05,1.0,-75.0,5.0,-0.3455193340778351,0.0,-0.1914832592010498,0.0,1603.0,7.45,0.015707963267948967,0.0,0.0,0.0,0.11129795014858246,1501.0,376.0,1500.0,51.4594429,2.72393536358755,1417.0,14.100081,-242.0,0.0,0.0,1500.0,1568.0,0.4579216241836548,-1.879853998702698e-05,-0.06828449666500092,1490.0,0.0,18.0,1000.0,0.0,0.018377872183918953,,,,,,,,,
6.901474,0.09895181655883789,0.9757912158966064,14.180762,1.8567919079153177e-05,0.0879645943005142,-9.710531234741211,0.0,0.03331403434276581,0.0,0.2069561630487442,-2.7913098,1.3883578777313232,5.0,0.0,0.0,-5.95920593913277e-06,1.0,-75.0,5.0,-0.43318843841552734,0.0,-0.1570221483707428,0.0,1603.0,7.45,0.0158824961931484,0.0,0.0,0.0,0.11101564019918442,1500.0,374.0,1500.0,51.4594429,2.7241098965127497,1417.0,14.200369,-243.0,0.0,0.0,1501.0,1568.0,0.4663766324520111,-0.00010141117173791333,-0.06827979534864426,1490.0,0.0,18.0,1001.0,0.0,0.01840320974588394,,,,,,,,,
7.001265,0.097394198179245,0.9758037328720093,14.260973,1.953079753611216e-05,0.0879645943005142,-9.705985069274902,0.0,0.032830458134412766,0.0,0.20689593255519867,-2.7913106,1.3860974311828613,5.0,0.0,0.0,-1.829130158867041e-05,1.0,-76.0,5.0,-0.43318843841552734,0.0,-0.19484907388687134,0.0,1603.0,7.45,0.0158824961931484,0.0,0.0,0.0,0.10911215096712112,1500.0,376.0,1500.0,51.4594433,2.724284429437949,1417.0,14.30016,-244.0,0.0,0.0,1500.0,1568.0,0.47126781940460205,-4.2648044398742375e-05,-0.06826779991388321,1491.0,0.0,18.0,1000.0,0.0,0.018459012731909752,,,,,,,,,
7.101433999999999,0.09520520269870758,0.9758282899856567,14.380894999999999,1.1840439360555933e-05,0.0879645943005142,-9.70963191986084,0.0,0.03340349718928337,0.0,0.2067827582359314,-2.7913106,1.3848000764846802,5.0,0.0,0.0,3.765852862887518e-06,1.0,-76.0,5.0,-0.263007253408432,0.0,-0.1542447954416275,0.0,1602.0,7.45,0.0158824961931484,0.0,0.0,0.0,0.10826527327299118,1500.0,375.0,1500.0,51.4594433,2.724458962363148,1418.0,14.400329,-243.0,0.0,0.0,1500.0,1568.0,0.4790540039539337,-7.621723545219808e-05,-0.06826473772525787,1491.0,0.0,18.0,1000.0,0.0,0.018439754843711853,,,,,,,,,
7.201312,0.09312047064304352,0.975843608379364,14.460521,1.8028807353144575e-05,0.0879645943005142,-9.713960647583008,0.0,0.033251140266656876,0.0,0.20670562982559204,-2.7913112,1.3972039222717285,5.0,0.0,0.0,-1.655615782090429e-05,1.0,-76.0,5.0,-0.43318843841552734,0.0,-0.19240379333496094,0.0,1602.0,7.44,0.016057029118347832,0.0,0.0,0.0,0.10686299204826355,1500.0,375.0,1500.0,51.4594434,2.724633495288348,1418.0,14.500207,-242.0,0.0,0.0,1500.0,1568.0,0.48199063539505005,-5.950998765525015e-05,-0.06826268881559372,1491.0,0.0,18.0,1000.0,0.0,0.018504785373806953,,,,,,,,,
7.301788,0.08880183845758438,0.9758661985397339,14.5815,-2.2166579200014113e-06,0.0879645943005142,-9.722354888916016,0.0,0.032836563885211945,0.0,0.20660488307476044,-2.7913118999999997,1.3846750259399414,5.0,0.0,0.0,-4.996786167946556e-06,1.0,-75.0,5.0,-0.4486594498157501,0.0,-0.1585051566362381,0.0,1602.0,7.43,0.016057029118347832,0.0,0.0,0.0,0.10616042464971542,1500.0,375.0,1500.0,51.459443699999994,2.7248080282135474,1418.0,14.600683,-243.0,0.0,0.0,1500.0,1568.0,0.4842722713947296,-8.905387021305297e-05,-0.06825777143239975,1491.0,0.0,18.0,1000.0,0.0,0.01845042034983635,,,,,,,,,
7.401209999999999,0.08632481843233109,0.9758721590042114,14.660582,6.05114627675338e-06,0.0879645943005142,-9.718826293945312,0.0,0.032771285623311996,0.0,0.20657113194465637,-2.7913118999999997,1.398973822593689,5.0,0.0,0.0,-1.372969342065019e-05,1.0,-76.0,5.0,-0.505386471748352,0.0,-0.18086639046669006,0.0,1602.0,7.43,0.016057029118347832,0.0,0.0,0.0,0.10551494359970093,1500.0,375.0,1500.0,51.459443699999994,2.7248080282135474,1418.0,14.700104999999999,-244.0,0.0,0.0,1500.0,1568.0,0.486721396446228,-7.635416458441749e-05,-0.06827361136674881,1491.0,0.0,18.0,1000.0,0.0,0.018454909324645996,,,,,,,,,
7.501424999999999,0.08339003473520279,0.9758902788162231,14.780736,3.0678404862829745e-07,0.0879645943005142,-9.714122772216797,0.0,0.03243451938033104,0.0,0.20648956298828125,-2.7913118999999997,1.3849120140075684,5.0,0.0,0.0,-5.828063460649132e-06,1.0,-76.0,5.0,-0.4125604033470154,0.0,-0.1760975569486618,0.0,1602.0,7.43,0.0158824961931484,0.0,0.0,0.0,0.10516687482595444,1500.0,373.0,1500.0,51.459443699999994,2.724982561138747,1418.0,14.80032,-243.0,0.0,0.0,1500.0,1568.0,0.4924415051937103,-6.0826089714278856e-05,-0.06827781349420547,1491.0,0.0,18.0,1000.0,0.0,0.018396710976958275,,,,,,,,,
7.601208,0.0816471204161644,0.9758993983268738,14.860529999999999,1.3761765613728623e-06,0.0879645943005142,-9.712468147277832,0.0,0.03237353637814522,0.0,0.20644927024841309,-2.7913124,1.3921470642089844,5.0,0.0,0.0,7.852435656892618e-07,1.0,-75.0,5.0,-0.3816183805465698,0.0,-0.1748274862766266,0.0,1602.0,7.4,0.0158824961931484,0.0,0.0,0.0,0.10517860949039459,1500.0,377.0,1500.0,51.4594439,2.7251570940639462,1418.0,14.900103,-243.0,0.0,0.0,1500.0,1568.0,0.4964848458766937,-6.744626540767718e-05,-0.0682636946439743,1491.0,0.0,18.0,1000.0,0.0,0.018418041989207268,,,,,,,,,
7.701494,0.0788244754076004,0.9759090542793274,14.980941,1.3515128038696341e-05,0.0879645943005142,-9.720638275146484,0.0,0.03279665857553482,0.0,0.20640479028224945,-2.7913124,1.3804206848144531,5.0,0.0,0.0,-1.79982790973932e-05,1.0,-75.0,5.0,-0.3300483226776123,0.0,-0.17055350542068481,0.0,1602.0,7.4,0.0158824961931484,0.0,0.0,0.0,0.10567156225442886,1500.0,376.0,1500.0,51.4594439,2.7251570940639462,1418.0,15.000389,-244.0,0.0,0.0,1500.0,1568.0,0.5004745721817017,-5.0935593163969446e-05,-0.06826937943696976,1491.0,0.0,18.0,1000.0,0.0,0.018383335322141647,,,,,,,,,
7.801242,0.0762007087469101,0.9759156107902527,15.06101,-2.3151890083437194e-06,0.0879645943005142,-9.719383239746094,0.0,0.03354976698756218,0.0,0.20637565851211548,-2.7913129,1.392031192779541,5.0,0.0,0.0,2.095757645924476e-06,1.0,-75.0,5.0,-0.4796014726161957,0.0,-0.17425522208213806,0.0,1603.0,7.33,0.0158824961931484,0.0,0.0,0.0,0.10656458139419556,1500.0,375.0,1501.0,51.4594439,2.7253316269891457,1417.0,15.100137,-244.0,0.0,0.0,1500.0,1569.0,0.5010787844657898,-8.036173113469792e-05,-0.06826762109994888,1490.0,0.0,18.0,1000.0,0.0,0.018368985503911972,,,,,,,,,
7.901434999999999,0.07200321555137634,0.9759223461151123,15.18086,1.3812560618433345e-05,0.0879645943005142,-9.714544296264648,0.0,0.03458763659000397,0.0,0.20634247362613678,-2.7913129,1.381852388381958,5.0,0.0,0.0,-3.876779134205616e-06,1.0,-75.0,5.0,-0.4641304612159729,0.0,-0.18010258674621582,0.0,1603.0,7.33,0.015707963267948967,0.0,0.0,0.0,0.10751274228096008,1500.0,375.0,1500.0,51.4594439,2.7253316269891457,1417.0,15.20033,-244.0,0.0,0.0,1500.0,1569.0,0.5014837384223938,-6.216871122715561e-05,-0.06829226762056351,1490.0,0.0,18.0,1000.0,0.0,0.01829340308904648,,,,,,,,,
8.001543,0.06974813342094421,0.9759278297424316,15.260952,6.464352567819054e-06,0.0879645943005142,-9.715614318847656,0.0,0.0351172611117363,0.0,0.20631538331508636,-2.7913134,1.3848286867141724,5.0,0.0,0.0,6.644367685218876e-06,1.0,-75.0,5.0,-0.42287442088127136,0.0,-0.17963583767414093,0.0,1602.0,7.3100000000000005,0.015707963267948967,0.0,0.0,0.0,0.10822422057390213,1500.0,377.0,1500.0,51.4594439,2.7253316269891457,1418.0,15.300438,-243.0,0.0,0.0,1500.0,1568.0,0.5029035806655884,-6.878974841675618e-05,-0.06829967349767685,1491.0,0.0,18.0,1000.0,0.0,0.018279150128364563,,,,,,,,,
8.101455,0.06659939140081406,0.9759408235549927,15.380751,8.281779382051958e-06,0.08813912722571364,-9.710987091064453,0.0,0.036149654537439346,0.0,0.20624709129333496,-2.7913134,1.3821626901626587,5.0,0.0,0.0,-4.4779358573358036e-06,1.0,-75.0,5.0,-0.4125604033470154,0.0,-0.18186286091804504,0.0,1603.0,7.3100000000000005,0.015533430342749533,0.0,0.0,0.0,0.11022654920816422,1501.0,376.0,1500.0,51.4594439,2.725506159914345,1417.0,15.40035,-243.0,0.0,0.0,1500.0,1568.0,0.50502610206604,-5.347417052495376e-05,-0.06833817809820175,1490.0,0.0,18.0,1000.0,0.0,0.018208984285593033,,,,,,,,,
8.201191999999999,0.0649704858660698,0.9759519100189209,15.460541,1.0355062441026025e-05,0.08813912722571364,-9.722414016723633,0.0,0.0368737131357193,0.0,0.20619633793830872,-2.7913139,1.392504334449768,5.0,0.0,0.0,-1.346273525315192e-05,1.0,-76.0,5.0,-0.5363285541534424,0.0,-0.18108154833316803,0.0,1603.0,7.28,0.015533430342749533,0.0,0.0,0.0,0.11143510043621063,1500.0,374.0,1500.0,51.459444,2.725680692839545,1417.0,15.500086999999999,-243.0,0.0,0.0,1500.0,1569.0,0.5057891607284546,-7.26710326275052e-05,-0.0683404877781868,1490.0,0.0,18.0,1000.0,0.0,0.018183518201112747,,,,,,,,,
8.30147,0.06204603239893913,0.9759748578071594,15.581361,1.3695288431988758e-05,0.0879645943005142,-9.712182998657227,0.0,0.037568628787994385,0.0,0.2060958296060562,-2.7913139,1.3995873928070068,5.0,0.0,0.0,-1.5152271533881558e-05,1.0,-75.0,5.0,-0.3816183805465698,0.0,-0.18861143290996552,0.0,1603.0,7.28,0.0153588974175501,0.0,0.0,0.0,0.11349053680896759,1500.0,377.0,1500.0,51.459444,2.725855225764744,1417.0,15.600365,-244.0,0.0,0.0,1500.0,1568.0,0.5082398056983948,-6.7135887018854e-05,-0.06833868473768234,1491.0,0.0,18.0,1000.0,0.0,0.01809651218354702,,,,,,,,,
8.40137,0.060034267604351044,0.9759902358055115,15.661016,-7.495109661719535e-07,0.0879645943005142,-9.707561492919922,0.0,0.038179829716682434,0.0,0.20602843165397644,-2.7913143,1.3811556100845337,5.0,0.0,0.0,-1.111670838885915e-05,1.0,-75.0,5.0,-0.43834543228149414,0.0,-0.17718666791915894,0.0,1602.0,7.28,0.015184364492350668,0.0,0.0,0.0,0.1154676303267479,1500.0,375.0,1500.0,51.459444,2.725855225764744,1418.0,15.700265,-244.0,0.0,0.0,1500.0,1568.0,0.5097708106040955,-5.5946684943675165e-05,-0.06833470612764359,1491.0,0.0,18.0,1000.0,0.0,0.018049126490950584,,,,,,,,,
8.501581,0.0569290854036808,0.976007878780365,15.780717,1.1563538429695312e-05,0.0879645943005142,-9.709718704223633,0.0,0.03936943784356117,0.0,0.20594336092472076,-2.7913148,1.3919028043746948,5.0,0.0,0.0,-5.274922451851892e-06,1.0,-75.0,5.0,-0.3816183805465698,0.0,-0.18645040690898895,0.0,1602.0,7.26,0.015184364492350668,0.0,0.0,0.0,0.11799930781126022,1500.0,376.0,1500.0,51.4594439,2.7260297586899433,1418.0,15.800476,-244.0,0.0,0.0,1500.0,1568.0,0.510460615158081,-4.9935765866355634e-05,-0.06834873557090759,1491.0,0.0,18.0,1000.0,0.0,0.018012702465057373,,,,,,,,,
8.601234999999999,0.054998401552438736,0.9760206937789917,15.860564,4.092782798291911e-06,0.0879645943005142,-9.715307235717773,0.0,0.040312621742486954,0.0,0.20588546991348267,-2.7913148,1.3887368440628052,5.0,0.0,0.0,1.7333610903358495e-06,1.0,-75.0,5.0,-0.4486594498157501,0.0,-0.1796870231628418,0.0,1603.0,7.26,0.015184364492350668,0.0,0.0,0.0,0.11995260417461395,1500.0,376.0,1500.0,51.4594439,2.726204291615143,1417.0,15.900129999999999,-243.0,0.0,0.0,1500.0,1568.0,0.5100199580192566,-7.26938704041871e-05,-0.06835012137889862,1491.0,0.0,18.0,1000.0,0.0,0.017972957342863083,,,,,,,,,
8.701648999999998,0.05086394026875496,0.976040780544281,15.980766,1.8919726495248939e-06,0.0879645943005142,-9.724327087402344,0.0,0.040640003979206085,0.0,0.2057889848947525,-2.7913148,1.3951783180236816,5.0,0.0,0.0,-1.514139920798967e-05,1.0,-75.0,5.0,-0.49507248401641846,0.0,-0.19222919642925262,0.0,1602.0,7.26,0.015009831567151233,0.0,0.0,0.0,0.12247484922409058,1500.0,376.0,1500.0,51.4594439,2.726378824540342,1418.0,16.000543999999998,-243.0,0.0,0.0,1500.0,1568.0,0.5086979866027832,-8.223372987286416e-05,-0.0683654174208641,1491.0,0.0,18.0,1000.0,0.0,0.017929859459400177,,,,,,,,,
8.801260000000001,0.048697978258132935,0.9760528206825256,16.061056999999998,-2.748809356086e-06,0.0879645943005142,-9.713740348815918,0.0,0.041253477334976196,0.0,0.2057342231273651,-2.7913154,1.3948571681976318,5.0,0.0,0.0,-2.5098566725888686e-06,1.0,-75.0,5.0,-0.4022463858127594,0.0,-0.17900057137012482,0.0,1602.0,7.23,0.015009831567151233,0.0,0.0,0.0,0.12408857047557831,1500.0,377.0,1500.0,51.4594439,2.7265533574655416,1418.0,16.100155,-243.0,0.0,0.0,1500.0,1568.0,0.5085956454277039,-6.826504033833636e-05,-0.06836986541748047,1491.0,0.0,18.0,1000.0,0.0,0.01788581907749176,,,,,,,,,
8.901438,0.04540734365582466,0.9760724902153015,16.180898,5.051171163458645e-06,0.0879645943005142,-9.716537475585938,0.0,0.04160129278898239,0.0,0.2056446224451065,-2.7913154,1.401857614517212,5.0,0.0,0.0,-5.011094827451721e-06,1.0,-75.0,5.0,-0.42803141474723816,0.0,-0.18245521187782288,0.0,1602.0,7.23,0.015009831567151233,0.0,0.0,0.0,0.1262676864862442,1500.0,375.0,1500.0,51.4594439,2.726727890390741,1418.0,16.200333,-243.0,0.0,0.0,1500.0,1568.0,0.5082659125328064,-9.011658266976862e-05,-0.06835906952619553,1491.0,0.0,18.0,1000.0,0.0,0.017884928733110428,,,,,,,,,
9.001237999999999,0.04278060793876648,0.9760859608650208,16.26097,9.221271468049324e-06,0.0879645943005142,-9.709115028381348,0.0,0.0416724793612957,0.0,0.20558348298072815,-2.7913159999999997,1.3927016258239746,5.0,0.0,0.0,-7.210167507020775e-06,1.0,-75.0,5.0,-0.5982125997543335,0.0,-0.17637509107589722,0.0,1603.0,7.18,0.015009831567151233,0.0,0.0,0.0,0.1269039660692215,1500.0,377.0,1500.0,51.459443799999995,2.7269024233159405,1417.0,16.300133,-244.0,0.0,0.0,1501.0,1568.0,0.5072683691978455,-5.4328315563840547e-05,-0.06835196912288666,1490.0,0.0,18.0,1000.0,0.0,0.01787649095058441,,,,,,,,,
9.101439999999998,0.04041111469268799,0.9761081337928772,16.38071,6.703166832852088e-06,0.0879645943005142,-9.706947326660156,0.0,0.042303916066884995,0.0,0.205479234457016,-2.7913159999999997,1.3971205949783325,5.0,0.0,0.0,-1.640113422069195e-05,1.0,-76.0,5.0,-0.4847584664821625,0.0,-0.17524217069149017,0.0,1603.0,7.18,0.015184364492350668,0.0,0.0,0.0,0.127822145819664,1500.0,375.0,1501.0,51.459443799999995,2.72707695624114,1417.0,16.400335,-244.0,0.0,0.0,1500.0,1569.0,0.5081687569618225,-9.617662328526088e-05,-0.0683310329914093,1490.0,0.0,18.0,1000.0,0.0,0.017944639548659325,,,,,,,,,
9.201215,0.039188023656606674,0.9761221408843994,16.460549,1.3726253531333247e-05,0.0879645943005142,-9.712857246398926,0.0,0.04183347895741463,0.0,0.2054136097431183,-2.7913167,1.395754098892212,5.0,0.0,0.0,-6.93782448030087e-06,1.0,-75.0,5.0,-0.44350242614746094,0.0,-0.18690671026706696,0.0,1602.0,7.09,0.015184364492350668,0.0,0.0,0.0,0.12707455456256866,1500.0,376.0,1500.0,51.459443799999995,2.7272514891663393,1418.0,16.50011,-243.0,0.0,0.0,1500.0,1568.0,0.5102173686027527,-4.807632384170311e-05,-0.06831438094377518,1491.0,0.0,18.0,1000.0,0.0,0.017998000606894493,,,,,,,,,
9.301473,0.03728236258029938,0.976140022277832,16.581378,1.5101414812320367e-05,0.0879645943005142,-9.711928367614746,0.0,0.04143710434436798,0.0,0.2053217887878418,-2.7913167,1.3958383798599243,5.0,0.0,0.0,-1.503426890431267e-05,1.0,-75.0,5.0,-0.4796014726161957,0.0,-0.16216668486595154,0.0,1602.0,7.09,0.015533430342749533,0.0,0.0,0.0,0.12633246183395386,1500.0,378.0,1500.0,51.459443799999995,2.727426022091539,1418.0,16.600368,-244.0,0.0,0.0,1500.0,1568.0,0.5123050212860107,-8.879972883339362e-05,-0.06828862428665161,1491.0,0.0,18.0,1000.0,0.0,0.01817372441291809,,,,,,,,,
9.401234999999998,0.03604135289788246,0.9761520028114319,16.661008,8.16546723559689e-06,0.0879645943005142,-9.727667808532715,0.0,0.04075823351740837,0.0,0.20525923371315002,-2.7913172,1.3916064500808716,5.0,0.0,0.0,-1.3235756401746291e-05,1.0,-75.0,5.0,-0.4486594498157501,0.0,-0.17870448529720306,0.0,1603.0,7.08,0.0158824961931484,0.0,0.0,0.0,0.12360844016075134,1500.0,378.0,1500.0,51.459444,2.727600555016738,1417.0,16.700129999999998,-244.0,0.0,0.0,1500.0,1569.0,0.5131906270980835,-4.296512376510087e-05,-0.06826729327440262,1490.0,0.0,18.0,1000.0,0.0,0.018316999077796936,,,,,,,,,
9.501481,0.03369312360882759,0.9761640429496765,16.780862,8.33288652674269e-06,0.0879645943005142,-9.70819091796875,0.0,0.0391346737742424,0.0,0.2051851451396942,-2.7913172,1.396222472190857,5.0,0.0,0.0,-4.485838154752178e-06,1.0,-76.0,5.0,-0.4847584664821625,0.0,-0.17214137315750122,0.0,1603.0,7.08,0.016580627893946133,0.0,0.0,0.0,0.11973979324102402,1500.0,376.0,1500.0,51.459444,2.7277750879419376,1417.0,16.800376,-243.0,0.0,0.0,1500.0,1569.0,0.5138551592826843,-9.842263328503708e-05,-0.06823446601629257,1490.0,0.0,18.0,1000.0,0.0,0.018629128113389015,,,,,,,,,
9.601258,0.03198825195431709,0.9761707782745361,16.860506,5.911756089640207e-07,0.08813912722571364,-9.71217155456543,0.0,0.03790392354130745,0.0,0.20513562858104706,-2.7913177,1.3848929405212402,5.0,0.0,0.0,-1.8075470376211863e-05,1.0,-76.0,5.0,-0.4074034094810486,0.0,-0.1772458553314209,0.0,1602.0,7.03,0.016929693744344994,0.0,0.0,0.0,0.11539311707019806,1500.0,378.0,1500.0,51.4594442,2.7279496208671374,1418.0,16.900153,-244.0,0.0,0.0,1500.0,1568.0,0.5140632390975952,-6.276747140601567e-05,-0.068224236369133,1491.0,0.0,18.0,1000.0,0.0,0.01885823719203472,,,,,,,,,
9.701479,0.02907053381204605,0.976173460483551,16.980728,1.5853796628233464e-05,0.08813912722571364,-9.713218688964844,0.0,0.03549104556441307,0.0,0.20509983599185944,-2.7913182,1.3897291421890259,5.0,0.0,0.0,-9.018890974597372e-06,1.0,-76.0,5.0,-0.4796014726161957,0.0,-0.17494720220565796,0.0,1602.0,6.96,0.017976891295541596,0.0,0.0,0.0,0.10750465840101242,1500.0,374.0,1500.0,51.459444,2.7279496208671374,1418.0,17.000374,-244.0,0.0,0.0,1500.0,1568.0,0.5131753087043762,-7.863219623548433e-05,-0.06816612184047699,1491.0,0.0,18.0,1000.0,0.0,0.019307689741253853,,,,,,,,,
9.801219999999999,0.026868386194109917,0.9761713147163391,17.061013,1.654580970732414e-05,0.08813912722571364,-9.711097717285156,0.0,0.03322368115186691,0.0,0.2050935924053192,-2.7913182,1.3994237184524536,5.0,0.0,0.0,-4.9629702196940374e-08,1.0,-75.0,5.0,-0.5157005190849304,0.0,-0.1817663162946701,0.0,1603.0,6.96,0.018675022996339326,0.0,0.0,0.0,0.10065213590860367,1500.0,378.0,1500.0,51.459444,2.7281241537923364,1417.0,17.100115,-243.0,0.0,0.0,1500.0,1569.0,0.5120449662208557,-5.882031930874764e-05,-0.06811598688364029,1490.0,0.0,18.0,1000.0,0.0,0.01965809427201748,,,,,,,,,
9.901622999999999,0.024006137624382973,0.9761571884155273,17.180699,6.1712330566275565e-06,0.08831366015091309,-9.709460258483887,0.0,0.029275739565491676,0.0,0.2051255702972412,-2.7913186999999997,1.3999743461608887,5.0,0.0,0.0,6.818953878069502e-07,1.0,-75.0,5.0,-0.505386471748352,0.0,-0.16108600795269012,0.0,1603.0,6.8500000000000005,0.019722220547535925,0.0,0.0,0.0,0.08961158990859985,1500.0,376.0,1500.0,51.459443699999994,2.7281241537923364,1417.0,17.200518,-243.0,0.0,0.0,1500.0,1568.0,0.5113118290901184,-5.881751538242904e-05,-0.06805504858493805,1491.0,0.0,18.0,1000.0,0.0,0.020231883972883224,,,,,,,,,
10.001209999999999,0.022713104262948036,0.9761422872543335,17.260956,5.929470605298666e-06,0.08848819307611251,-9.71883773803711,0.0,0.026179786771535873,0.0,0.2051704376935959,-2.7913186999999997,1.389928936958313,5.0,0.0,0.0,-1.0654355161737429e-05,1.0,-76.0,5.0,-0.505386471748352,0.0,-0.1832352727651596,0.0,1602.0,6.8500000000000005,0.02076941809873252,0.0,0.0,0.0,0.08069538325071335,1500.0,375.0,1500.0,51.459443699999994,2.7281241537923364,1418.0,17.300105,-243.0,0.0,0.0,1500.0,1568.0,0.5114879608154297,-5.2184750466226354e-05,-0.06799862533807755,1491.0,0.0,18.0,1000.0,0.0,0.020680183544754982,,,,,,,,,
10.101604,0.020551040768623352,0.9761059880256653,17.380793,-5.289604968199536e-06,0.08848819307611251,-9.718554496765137,0.0,0.02159934863448143,0.0,0.20530349016189575,-2.7913186999999997,1.3955878019332886,5.0,0.0,0.0,-7.9332203552329e-06,1.0,-75.0,5.0,-0.546642541885376,0.0,-0.17449639737606049,0.0,1602.0,6.8500000000000005,0.02199114857512855,0.0,0.0,0.0,0.06577827781438828,1500.0,375.0,1500.0,51.459443699999994,2.7279496208671374,1418.0,17.400499,-243.0,0.0,0.0,1500.0,1568.0,0.5122002959251404,-7.054687557640928e-05,-0.06790672987699509,1491.0,0.0,18.0,1000.0,0.0,0.021360553801059723,,,,,,,,,
10.201244999999998,0.01925116963684559,0.9760732650756836,17.460528,4.7752770046928525e-06,0.08866272600131195,-9.721713066101074,0.0,0.018007386475801468,0.0,0.20542751252651215,-2.7913191,1.3831360340118408,5.0,0.0,0.0,-2.040063643506042e-05,1.0,-75.0,5.0,-0.4692874550819397,0.0,-0.1844363510608673,0.0,1602.0,6.79,0.022863813201125717,0.0,0.0,0.0,0.05524968355894089,1501.0,377.0,1500.0,51.4594434,2.7277750879419376,1417.0,17.50014,-244.0,0.0,0.0,1500.0,1568.0,0.5133012533187866,-6.259207159197287e-05,-0.0678592398762703,1491.0,0.0,18.0,1000.0,0.0,0.021810419857501984,,,,,,,,,
10.301443999999998,0.017389949411153793,0.9760113954544067,17.581143,4.166281986812259e-06,0.08866272600131195,-9.716300964355469,0.0,0.012662985362112522,0.0,0.20567752420902252,-2.7913191,1.3844597339630127,5.0,0.0,0.0,-4.158455629067012e-06,1.0,-75.0,5.0,-0.48991549015045166,0.0,-0.1747896522283554,0.0,1603.0,6.79,0.024260076602721184,0.0,0.0,0.0,0.038851071149110794,1500.0,375.0,1500.0,51.4594434,2.7272514891663393,1417.0,17.600338999999998,-244.0,0.0,0.0,1501.0,1568.0,0.5147901773452759,-5.958656735303845e-05,-0.06776472181081772,1490.0,0.0,18.0,1001.0,0.0,0.022505195811390877,,,,,,,,,
10.401207999999999,0.01622151955962181,0.9759671688079834,17.66069,1.646741558475141e-05,0.08883725892651137,-9.722124099731445,0.0,0.008941562846302986,0.0,0.20585346221923828,-2.7913194999999997,1.3952748775482178,5.0,0.0,0.0,5.000289044014134e-06,1.0,-75.0,5.0,-0.49507248401641846,0.0,-0.17600871622562408,0.0,1602.0,6.73,0.02530727415391778,0.0,0.0,0.0,0.027652082964777946,1500.0,376.0,1500.0,51.459443199999995,2.7269024233159405,1418.0,17.700103,-243.0,0.0,0.0,1500.0,1568.0,0.5151196122169495,-9.729621074596937e-05,-0.06771117448806763,1491.0,0.0,18.0,1000.0,0.0,0.022972244769334793,,,,,,,,,
10.501551000000001,0.013993608765304089,0.9758912324905396,17.78076,4.4301912019125966e-07,0.08883725892651137,-9.708473205566406,0.0,0.003221664810553193,0.0,0.20616914331912994,-2.7913194999999997,1.390052080154419,5.0,0.0,0.0,-1.5145661988726202e-06,1.0,-75.0,5.0,-0.48991549015045166,0.0,-0.18491503596305847,0.0,1602.0,6.73,0.02652900463031381,0.0,0.0,0.0,0.011143168434500694,1500.0,376.0,1500.0,51.459443199999995,2.726378824540342,1418.0,17.800446,-242.0,0.0,0.0,1500.0,1568.0,0.5152301788330078,-5.3492087207763447e-05,-0.06762781739234924,1491.0,0.0,18.0,1000.0,0.0,0.023603998124599457,,,,,,,,,
10.601185,0.012514909729361534,0.9758356213569641,17.860556,1.1348144060829879e-05,0.08901179185171082,-9.71082878112793,0.0,-0.00033423668355681,0.0,0.20639996230602264,-2.7913197999999997,1.4042125940322876,5.0,0.0,0.0,-1.4367001490898933e-05,1.0,-75.0,5.0,-0.5878985524177551,0.0,-0.1744362711906433,0.0,1603.0,6.67,0.027227136331111543,0.0,0.0,0.0,0.0011436669155955315,1500.0,377.0,1500.0,51.459443,2.7260297586899433,1417.0,17.90008,-242.0,0.0,0.0,1501.0,1568.0,0.5150551199913025,-8.485027264015075e-05,-0.06758133322000504,1490.0,0.0,18.0,1001.0,0.0,0.024014325812458992,,,,,,,,,
10.701476999999999,0.0109568415209651,0.9757431149482727,17.980895999999998,-3.2226472520664667e-07,0.08901179185171082,-9.702256202697754,0.0,-0.005660779774188995,0.0,0.20679844915866852,-2.7913197999999997,1.3916289806365967,5.0,0.0,0.0,-1.1248414700352505e-05,1.0,-75.0,5.0,-0.6136835813522339,0.0,-0.17522473633289337,0.0,1603.0,6.67,0.028274333882308142,0.0,0.0,0.0,-0.014627690427005291,1500.0,376.0,1500.0,51.459443,2.7253316269891457,1417.0,18.000372,-244.0,0.0,0.0,1500.0,1569.0,0.5160854458808899,-4.063379313201274e-05,-0.06750466674566269,1490.0,0.0,18.0,1000.0,0.0,0.024553406983613968,,,,,,,,,
10.801373,0.010881155729293823,0.9756761789321899,18.061080999999998,2.0149459496342244e-05,0.08918632477691024,-9.720393180847168,0.0,-0.008807272650301456,0.0,0.20708973705768585,-2.79132,1.3939155340194702,5.0,0.0,0.0,-9.084887882363645e-06,1.0,-75.0,5.0,-0.629154622554779,0.0,-0.1724710613489151,0.0,1602.0,6.67,0.028972465583105872,0.0,0.0,0.0,-0.024206679314374924,1500.0,379.0,1500.0,51.4594427,2.724633495288348,1418.0,18.100268,-244.0,0.0,0.0,1500.0,1568.0,0.5186988115310669,-7.954374049067569e-05,-0.06745505332946777,1491.0,0.0,18.0,1000.0,0.0,0.02489556185901165,,,,,,,,,
10.901258,0.01221319567412138,0.9755635857582092,18.180681,5.202106720371701e-06,0.08918632477691024,-9.716280937194824,0.0,-0.013889799825847149,0.0,0.2075868546962738,-2.79132,1.3896061182022095,5.0,0.0,0.0,1.7518536701498357e-06,1.0,-76.0,5.0,-0.629154622554779,0.0,-0.17023448646068573,0.0,1602.0,6.67,0.029670597283903602,0.0,0.0,0.0,-0.03827713057398796,1500.0,376.0,1500.0,51.4594427,2.723760830662351,1418.0,18.200153,-242.0,0.0,0.0,1500.0,1568.0,0.5252020359039307,-5.764428759214743e-05,-0.06739882379770279,1491.0,0.0,18.0,1000.0,0.0,0.02531595341861248,,,,,,,,,
11.001226999999998,0.013431125320494175,0.9754852652549744,18.260958,1.0695521066938807e-05,0.08918632477691024,-9.718770027160645,0.0,-0.016615573316812515,0.0,0.2079351395368576,-2.79132,1.400458812713623,5.0,0.0,0.0,-4.719024185346657e-07,1.0,-75.0,5.0,-0.5517995357513428,0.0,-0.17300328612327576,0.0,1603.0,6.67,0.0301941960595019,0.0,0.0,0.0,-0.04612916707992554,1500.0,376.0,1500.0,51.4594427,2.723062698961553,1417.0,18.300121999999998,-243.0,0.0,0.0,1500.0,1569.0,0.5309053659439087,-6.930046124555101e-05,-0.06736714392900467,1490.0,0.0,18.0,1000.0,0.0,0.025560278445482254,,,,,,,,,
11.101311999999998,0.015608754940330982,0.9753562211990356,18.380753,2.5398630018380035e-06,0.08936085770210968,-9.714520454406738,0.0,-0.020862465724349022,0.0,0.20851266384124756,-2.7913201,1.392050862312317,5.0,0.0,0.0,-1.316742898420652e-05,1.0,-76.0,5.0,-0.5208575129508972,0.0,-0.18114161491394043,0.0,1603.0,6.62,0.0307177948351002,0.0,0.0,0.0,-0.05666879191994667,1500.0,375.0,1500.0,51.4594424,2.721840968485157,1417.0,18.400206999999998,-244.0,0.0,0.0,1500.0,1568.0,0.539352297782898,-4.990813296930281e-05,-0.067337267100811,1491.0,0.0,19.0,1000.0,0.0,0.025856029242277145,,,,,,,,,
11.201184,0.01573752984404564,0.9752721190452576,18.460641,7.5668797623434155e-06,0.08936085770210968,-9.713011741638184,0.0,-0.02293490245938301,0.0,0.20889349281787872,-2.7913201,1.404738426208496,5.0,0.0,0.0,-1.5840586173203084e-06,1.0,-76.0,5.0,-0.5930556058883667,0.0,-0.1736382693052292,0.0,1602.0,6.62,0.031066860685499065,0.0,0.0,0.0,-0.06290936470031738,1500.0,377.0,1500.0,51.4594424,2.721142836784359,1418.0,18.500079,-243.0,0.0,0.0,1500.0,1568.0,0.543623685836792,-9.585290389628705e-05,-0.06730350852012634,1491.0,0.0,19.0,1000.0,0.0,0.026037955656647682,,,,,,,,,
11.301439999999998,0.016413329169154167,0.9751360416412354,18.581208,1.4514925874765498e-05,0.08936085770210968,-9.712459564208984,0.0,-0.02624574862420559,0.0,0.20951730012893677,-2.7913201,1.4005353450775146,5.0,0.0,0.0,-6.550358436022969e-06,1.0,-75.0,5.0,-0.6600966453552246,0.0,-0.18326960504055023,0.0,1602.0,6.62,0.031241393610698498,0.0,0.0,0.0,-0.0710909366607666,1500.0,376.0,1500.0,51.4594424,2.719921106307963,1418.0,18.600334999999998,-243.0,0.0,0.0,1500.0,1568.0,0.549248456954956,-6.539566062667776e-05,-0.06727676838636398,1491.0,0.0,19.0,1000.0,0.0,0.026195576414465904,,,,,,,,,
11.401247,0.016958341002464294,0.9750470519065857,18.66079,1.2610370097928242e-05,0.08936085770210968,-9.709928512573242,0.0,-0.028326334431767464,0.0,0.20992383360862732,-2.7913204,1.3997867107391357,5.0,0.0,0.0,-7.966950776113335e-06,1.0,-76.0,5.0,-0.4744444489479065,0.0,-0.1809520721435547,0.0,1602.0,6.54,0.031415926535897934,0.0,0.0,0.0,-0.07462435215711594,1500.0,378.0,1500.0,51.459441999999996,2.719048441681966,1418.0,18.700142,-244.0,0.0,0.0,1500.0,1568.0,0.554203450679779,-9.114214513459354e-05,-0.06725936383008957,1491.0,0.0,19.0,1000.0,0.0,0.026294268667697906,,,,,,,,,
11.501391,0.017637046054005623,0.9749053716659546,18.780549,-2.342052159047804e-07,0.08936085770210968,-9.72131061553955,0.0,-0.030898388475179672,0.0,0.21057625114917755,-2.7913204,1.390571117401123,5.0,0.0,0.0,-7.30517794077718e-06,1.0,-76.0,5.0,-0.5311715006828308,0.0,-0.1788618266582489,0.0,1603.0,6.54,0.031415926535897934,0.0,0.0,0.0,-0.07970645278692245,1501.0,376.0,1500.0,51.459441999999996,2.7176521782803706,1417.0,18.800286,-243.0,0.0,0.0,1500.0,1568.0,0.560228168964386,-4.9246325084887675e-05,-0.06723707914352417,1490.0,0.0,19.0,1000.0,0.0,0.02638895995914936,,,,,,,,,
11.601231,0.01683729700744152,0.9748175144195557,18.860649,-6.048920914216828e-06,0.08936085770210968,-9.719579696655273,0.0,-0.03133668005466461,0.0,0.21097953617572784,-2.7913205999999997,1.4007081985473633,5.0,0.0,0.0,-9.768501373482526e-06,1.0,-75.0,5.0,-0.5621135234832764,0.0,-0.17331463098526,0.0,1602.0,6.46,0.03159045946109736,0.0,0.0,0.0,-0.08232347667217255,1500.0,377.0,1500.0,51.4594415,2.716954046579573,1418.0,18.900126,-244.0,0.0,0.0,1500.0,1568.0,0.5621328353881836,-7.282979174839634e-05,-0.06722075492143631,1491.0,0.0,19.0,1000.0,0.0,0.02645663544535637,,,,,,,,,
11.701576999999999,0.01582092046737671,0.974674642086029,18.980798,1.6862659476817416e-05,0.08936085770210968,-9.721866607666016,0.0,-0.03336094319820404,0.0,0.21164019405841827,-2.7913205999999997,1.398115873336792,5.0,0.0,0.0,-1.4048032522021387e-05,1.0,-75.0,5.0,-0.5105435252189636,0.0,-0.18274818360805511,0.0,1602.0,6.46,0.03159045946109736,0.0,0.0,0.0,-0.08506432920694351,1500.0,376.0,1500.0,51.4594415,2.7155577831779776,1418.0,19.000472,-243.0,0.0,0.0,1500.0,1568.0,0.5642146468162537,-5.16541175695855e-05,-0.06719604134559631,1491.0,0.0,19.0,1000.0,0.0,0.026505202054977417,,,,,,,,,
11.801162,0.014623060822486877,0.9745879173278809,19.061055,1.1143427978027764e-05,0.08936085770210968,-9.710760116577148,0.0,-0.03360554575920105,0.0,0.21204771101474762,-2.7913205999999997,1.387139081954956,5.0,0.0,0.0,-5.893815024862527e-06,1.0,-75.0,5.0,-0.42803141474723816,0.0,-0.17924481630325317,0.0,1603.0,6.47,0.03159045946109736,0.0,0.0,0.0,-0.0862451121211052,1500.0,376.0,1500.0,51.459441399999996,2.71468511855198,1417.0,19.100057,-243.0,0.0,0.0,1501.0,1568.0,0.5648031234741211,-6.571437764855276e-05,-0.06716595590114594,1490.0,0.0,19.0,1000.0,0.0,0.026515448465943336,,,,,,,,,
11.901475,0.011749861761927605,0.9744659662246704,19.180756,3.500696421232013e-06,0.08936085770210968,-9.714808464050293,0.0,-0.03402598947286606,0.0,0.21261325478553772,-2.7913205999999997,1.4010578393936157,5.0,0.0,0.0,9.260312713321516e-07,1.0,-75.0,5.0,-0.5414855480194092,0.0,-0.17131227254867554,0.0,1603.0,6.47,0.031415926535897934,0.0,0.0,0.0,-0.08815541863441467,1500.0,378.0,1501.0,51.459441399999996,2.713463388075584,1417.0,19.20037,-244.0,0.0,0.0,1500.0,1569.0,0.5622975826263428,-6.05222985204737e-05,-0.06714285910129547,1490.0,0.0,19.0,1000.0,0.0,0.0265245009213686,,,,,,,,,
12.001236999999998,0.009211348369717598,0.9743897914886475,19.260963999999998,8.327279182063164e-06,0.08936085770210968,-9.71448802947998,0.0,-0.03438691794872284,0.0,0.2129649966955185,-2.7913205,1.3922779560089111,5.0,0.0,0.0,-1.9869170487846655e-05,1.0,-76.0,5.0,-0.5878985524177551,0.0,-0.16414184868335724,0.0,1603.0,6.47,0.031415926535897934,0.0,0.0,0.0,-0.08861687779426575,1500.0,377.0,1500.0,51.459441399999996,2.7127652563747864,1417.0,19.300131999999998,-244.0,0.0,0.0,1500.0,1568.0,0.5595296621322632,-6.356003165742663e-05,-0.06714700162410736,1491.0,0.0,19.0,1000.0,0.0,0.026492422446608543,,,,,,,,,
12.101469,0.0060393367893993855,0.9742863774299622,19.380696,-2.659360550819142e-06,0.08936085770210968,-9.707195281982422,0.0,-0.034943029284477234,0.0,0.2134404331445694,-2.7913205,1.4061503410339355,5.0,0.0,0.0,-7.785513377247559e-06,1.0,-76.0,5.0,-0.5105435252189636,0.0,-0.18751534819602966,0.0,1602.0,6.47,0.031241393610698498,0.0,0.0,0.0,-0.08953201025724411,1500.0,376.0,1500.0,51.459441399999996,2.7118925917487893,1418.0,19.400364,-243.0,0.0,0.0,1500.0,1568.0,0.5570288300514221,-5.961072581965302e-05,-0.06715434789657593,1491.0,0.0,19.0,1000.0,0.0,0.026451587677001953,,,,,,,,,
12.201237999999998,0.0043705361895263195,0.9742246866226196,19.460670999999998,1.4625212627381584e-05,0.08936085770210968,-9.712556838989258,0.0,-0.035058341920375824,0.0,0.21372359991073608,-2.7913204,1.3894476890563965,5.0,0.0,0.0,-3.2718343167781604e-06,1.0,-75.0,5.0,-0.6188405752182007,0.0,-0.16597658395767212,0.0,1603.0,6.48,0.031066860685499065,0.0,0.0,0.0,-0.08898571878671646,1500.0,376.0,1500.0,51.4594415,2.7111944600479916,1417.0,19.500132999999998,-242.0,0.0,0.0,1500.0,1569.0,0.5556333661079407,-5.725175822585073e-05,-0.06716357171535492,1490.0,0.0,19.0,1000.0,0.0,0.026411734521389008,,,,,,,,,
12.301536,0.002957722870633006,0.9741331338882446,19.58135,-4.12662674771079e-06,0.08936085770210968,-9.721688270568848,0.0,-0.03505207598209381,0.0,0.214140385389328,-2.7913204,1.4033868312835693,5.0,0.0,0.0,-1.3174443879579671e-05,1.0,-75.0,5.0,-0.5878985524177551,0.0,-0.17237572371959686,0.0,1603.0,6.48,0.030892327760299633,0.0,0.0,0.0,-0.08840746432542801,1500.0,378.0,1500.0,51.4594415,2.710321795421994,1417.0,19.600431,-243.0,0.0,0.0,1500.0,1569.0,0.5546987652778625,-7.311659683783666e-05,-0.06718361377716064,1490.0,0.0,19.0,1000.0,0.0,0.026363268494606018,,,,,,,,,
12.401241,0.0024084923788905144,0.9740738272666931,19.661061,1.1372784071312204e-05,0.08936085770210968,-9.714825630187988,0.0,-0.035279422998428345,0.0,0.21441161632537842,-2.7913205,1.3906986713409424,5.0,0.0,0.0,-1.5434098638191045e-05,1.0,-76.0,5.0,-0.5569565296173096,0.0,-0.18231657147407532,0.0,1602.0,6.47,0.0307177948351002,0.0,0.0,0.0,-0.08726785331964493,1500.0,377.0,1500.0,51.4594415,2.7097981966463958,1418.0,19.700136,-243.0,0.0,0.0,1500.0,1568.0,0.5554817318916321,-6.325025062681915e-05,-0.06720063835382462,1491.0,0.0,19.0,1000.0,0.0,0.02630632370710373,,,,,,,,,
12.501654999999998,0.0037072435952723026,0.9739844799041748,19.780829,6.34815877550026e-06,0.08936085770210968,-9.846441268920898,0.0,-0.03665108233690262,0.0,0.21482662856578827,-2.7913205,1.331368327140808,5.0,0.0,0.0,-1.5165535324466912e-05,1.0,-75.0,5.0,-0.5930556058883667,0.0,-0.22750414907932281,0.0,1602.0,6.43,0.0307177948351002,0.0,0.0,0.0,-0.08437642455101013,1500.0,378.0,1500.0,51.459441299999995,2.708925532020399,1418.0,19.800549999999998,-243.0,0.0,0.0,1500.0,1568.0,0.5569511651992798,-4.389718951001529e-05,-0.06717957556247711,1491.0,0.0,19.0,1000.0,0.0,0.026283059269189835,,,,,,,,,
12.601244,0.003181058680638671,0.9739378094673157,19.860523,-1.592708069668209e-05,0.08936085770210968,-9.79694652557373,0.0,-0.03578989952802658,0.0,0.21504756808280945,-2.7913205,1.2802019119262695,5.0,0.0,0.0,-5.451131442457287e-06,1.0,-75.0,5.0,-0.4847584664821625,0.0,-0.09683732688426971,0.0,1602.0,6.43,0.030019663134302467,0.0,0.0,0.0,-0.08269482851028442,1500.0,377.0,1500.0,51.459441299999995,2.708401933244801,1418.0,19.900139,-242.0,0.0,0.0,1500.0,1568.0,0.5581364631652832,0.00010547458924953111,-0.06725253164768219,1491.0,0.0,19.0,1000.0,0.0,0.026017803698778152,,,,,,,,,
12.701492999999997,0.0012847514590248466,0.9738361835479736,19.980698,1.6472423031426902e-05,0.08936085770210968,-9.847823143005371,0.0,-0.0356464684009552,0.0,0.2154889702796936,-2.7913205,1.2973124980926514,5.0,0.0,0.0,-2.641936790128937e-05,1.0,-75.0,5.0,-0.5363285541534424,0.0,-0.1995769441127777,0.0,1602.0,6.43,0.0307177948351002,0.0,0.0,0.0,-0.08215659856796265,1500.0,377.0,1500.0,51.459441299999995,2.7075292686188033,1418.0,20.000387999999997,-243.0,0.0,0.0,1500.0,1568.0,0.5585261583328247,-2.2126054845345413e-05,-0.06718220561742783,1491.0,0.0,19.0,1000.0,0.0,0.026347534731030464,,,,,,,,,
12.801207,0.001568768871948123,0.973792314529419,20.061090999999998,1.4203768278882037e-05,0.08918632477691024,-9.677534103393555,0.0,-0.03602321445941925,0.0,0.2157110571861267,-2.7913205,1.2681750059127808,5.0,0.0,0.0,-1.899768986972055e-05,1.0,-75.0,5.0,-0.5157005190849304,0.0,-0.015142077580094337,0.0,1602.0,6.390000000000001,0.0307177948351002,0.0,0.0,0.0,-0.0783369243144989,1500.0,376.0,1500.0,51.4594411,2.707180202768405,1418.0,20.100102,-244.0,0.0,0.0,1500.0,1568.0,0.5576205253601074,-5.388564468037696e-05,-0.06711169332265854,1491.0,0.0,19.0,1000.0,0.0,0.026330718770623207,,,,,,,,,
12.901828999999998,-0.0005302563076838851,0.9736853241920471,20.181146,-1.857884118489637e-06,0.08901179185171082,-9.92068862915039,0.0,-0.031890619546175,0.0,0.21620099246501923,-2.7913205,1.3748151063919067,5.0,0.0,0.0,-1.1915981808789425e-05,1.0,-75.0,5.0,-0.6394686102867126,0.0,-0.4015927314758301,0.0,1602.0,6.390000000000001,0.0322885911618951,0.0,0.0,0.0,-0.07656773179769516,1500.0,375.0,1500.0,51.4594411,2.7063075381424073,1418.0,20.200723999999997,-244.0,0.0,0.0,1500.0,1568.0,0.5555840134620667,-0.00020919774046527294,-0.06677308678627014,1491.0,0.0,19.0,1000.0,0.0,0.02712026610970497,,,,,,,,,
13.001430000000001,0.00238433456979692,0.973707914352417,20.260955,-0.00010293010332497109,0.08901179185171082,-9.778437614440918,0.0,-0.02859121933579445,0.0,0.2161543220281601,-2.7913202999999998,1.6004775762557983,5.0,0.0,0.0,-1.8763297884131302e-05,1.0,-75.0,5.0,-0.629154622554779,0.0,-0.27103468775749207,0.0,1603.0,6.34,0.029845130209103034,0.0,0.0,0.0,-0.07647902518510818,1501.0,377.0,1500.0,51.459440799999996,2.7061330052172083,1417.0,20.300325,-243.0,0.0,0.0,1500.0,1568.0,0.5550294518470764,0.00018058381054849226,-0.06706944853067398,1490.0,0.0,19.0,1000.0,0.0,0.02592450939118862,,,,,,,,,
13.101266999999998,-0.007067427504807711,0.9736515879631042,20.380855999999998,-8.155316412774374e-05,0.08883725892651137,-9.724080085754395,0.0,-0.03041854500770569,0.0,0.2164369821548462,-2.7913202999999998,1.1991453170776367,5.0,0.0,0.0,5.490622103274838e-05,1.0,-75.0,5.0,-0.5982125997543335,0.0,-0.2563101053237915,0.0,1603.0,6.34,0.02949606435870417,0.0,0.0,0.0,-0.07764993607997894,1500.0,376.0,1501.0,51.459440799999996,2.7056094064416096,1417.0,20.400161999999998,-243.0,0.0,0.0,1500.0,1568.0,0.5572331547737122,0.00043491140342469367,-0.06703907251358032,1490.0,0.0,19.0,1001.0,0.0,0.025759000331163406,,,,,,,,,
13.201230999999998,-0.0027343675028532743,0.9736038446426392,20.46052,-7.992596847549754e-05,0.08901179185171082,-9.792709350585938,0.0,-0.03275081887841225,0.0,0.21662548184394836,-2.7913202999999998,1.3785535097122192,5.0,0.0,0.0,1.5034987156452978e-05,1.0,-75.0,5.0,-0.5672705769538879,0.0,-0.18828263878822327,0.0,1603.0,6.29,0.029670597283903602,0.0,0.0,0.0,-0.0747208520770073,1500.0,378.0,1500.0,51.4594405,2.705260340591211,1417.0,20.500125999999998,-242.0,0.0,0.0,1500.0,1568.0,0.5594305992126465,0.0006252929940265604,-0.06706461310386658,1491.0,0.0,19.0,1000.0,0.0,0.02591114491224289,,,,,,,,,
13.301613999999999,-0.00492359371855855,0.9735375642776489,20.581137,4.8347902392135066e-05,0.08901179185171082,-9.709121704101562,0.0,-0.028657501563429832,0.0,0.21689295768737793,-2.7913202999999998,1.3607869148254395,5.0,0.0,0.0,6.350081903225297e-06,1.0,-75.0,5.0,-0.5517995357513428,0.0,-0.07083214819431305,0.0,1602.0,6.29,0.030543261909900768,0.0,0.0,0.0,-0.06769528985023499,1500.0,378.0,1500.0,51.4594405,2.7047367418156125,1418.0,20.600509,-242.0,0.0,0.0,1500.0,1568.0,0.5623464584350586,-0.00020512863382779134,-0.06698194146156311,1491.0,0.0,19.0,1000.0,0.0,0.026371140033006668,,,,,,,,,
13.401223,0.002155513735488057,0.9734970331192017,20.660709,2.858247311441511e-06,0.08901179185171082,-9.971266746520996,0.0,-0.026651356369256973,0.0,0.21707499027252197,-2.7913202,1.3740910291671753,5.0,0.0,0.0,7.959313835781894e-05,1.0,-75.0,5.0,-0.6033695936203003,0.0,-0.15535351634025574,0.0,1603.0,6.24,0.031066860685499065,0.0,0.0,0.0,-0.07167371362447739,1500.0,378.0,1501.0,51.459440199999996,2.704387675965214,1417.0,20.700118,-243.0,0.0,0.0,1500.0,1569.0,0.5635974407196045,0.00020624438519220307,-0.06688794493675232,1490.0,0.0,19.0,1000.0,0.0,0.02661016397178173,,,,,,,,,
13.501246999999998,-0.002690114313736558,0.9734369516372681,20.780723,4.381799281432963e-05,0.08918632477691024,-9.739160537719727,0.0,-0.02403448335826397,0.0,0.21727406978607178,-2.7913202,1.3865888118743896,5.0,0.0,0.0,-1.2768402331398743e-06,1.0,-75.0,5.0,-0.6239976286888123,0.0,-0.21323205530643463,0.0,1603.0,6.24,0.031939525311496235,0.0,0.0,0.0,-0.06128397956490517,1500.0,377.0,1500.0,51.459440199999996,2.704038610114815,1417.0,20.800141999999997,-242.0,0.0,0.0,1500.0,1569.0,0.5650905966758728,-0.0005302230195043292,-0.06694289296865463,1490.0,0.0,19.0,1000.0,0.0,0.02704189531505108,,,,,,,,,
13.601224999999998,-0.005149219185113907,0.9734341502189636,20.860546,-3.745424634192018e-05,0.08918632477691024,-9.561269760131836,0.0,-0.027153482660651207,0.0,0.21731558442115784,-2.79132,1.4049458503723145,5.0,0.0,0.0,-6.721702208099469e-06,1.0,-75.0,5.0,-0.5621135234832764,0.0,-0.1970299929380417,0.0,1602.0,6.19,0.0307177948351002,0.0,0.0,0.0,-0.06634721159934998,1500.0,376.0,1500.0,51.4594399,2.7038640771896154,1418.0,20.900119999999998,-243.0,0.0,0.0,1500.0,1568.0,0.5669348239898682,0.0003048557105274976,-0.06705886870622635,1491.0,0.0,19.0,1000.0,0.0,0.026514044031500816,,,,,,,,,
13.701437,-0.005849142093211412,0.9733791351318359,20.980794,6.0934731699971096e-05,0.08936085770210968,-9.742449760437012,0.0,-0.022909564897418022,0.0,0.2175496220588684,-2.79132,1.5615692138671875,5.0,0.0,0.0,1.9916934763134726e-05,1.0,-74.0,5.0,-0.7477657198905945,0.0,-0.29762470722198486,0.0,1602.0,6.19,0.031066860685499065,0.0,0.0,0.0,-0.059024278074502945,1500.0,379.0,1500.0,51.4594399,2.703340478414017,1418.0,21.000332,-243.0,0.0,0.0,1500.0,1568.0,0.5695440173149109,-0.0004621909244881481,-0.06704637408256531,1491.0,0.0,19.0,1000.0,0.0,0.026645459234714508,,,,,,,,,
13.801259,-0.003297568066045642,0.9733710885047913,21.061026,-4.9815050742848105e-05,0.08918632477691024,-9.558385848999023,0.0,-0.027826687321066856,0.0,0.21761779487133026,-2.7913199,1.4872393608093262,5.0,0.0,0.0,-1.8374110879279595e-05,1.0,-74.0,5.0,-0.6652536392211914,0.0,-0.2415650188922882,0.0,1602.0,6.16,0.030019663134302467,0.0,0.0,0.0,-0.06238127127289772,1500.0,375.0,1500.0,51.4594397,2.7031659454888177,1418.0,21.100154,-243.0,0.0,0.0,1500.0,1568.0,0.5730445384979248,0.0003210378276252473,-0.06712178140878677,1491.0,0.0,19.0,1000.0,0.0,0.026191996410489082,,,,,,,,,
13.901403,-0.0009492972167208791,0.9733113050460815,21.180730999999998,-5.012464078137302e-05,0.08918632477691024,-9.70588207244873,0.0,-0.020493008196353912,0.0,0.21788084506988525,-2.7913199,1.694477915763855,5.0,0.0,0.0,2.9918757347445706e-05,1.0,-74.0,5.0,-0.5775845646858215,0.0,-0.15054476261138916,0.0,1602.0,6.16,0.030892327760299633,0.0,0.0,0.0,-0.06202639639377594,1500.0,377.0,1500.0,51.4594397,2.702642346713219,1418.0,21.200298,-243.0,0.0,0.0,1500.0,1568.0,0.5812119841575623,0.00031251697999932907,-0.06697741150856018,1491.0,0.0,19.0,1000.0,0.0,0.026592740789055824,,,,,,,,,
14.001212,0.005540907848626375,0.9732699394226074,21.261011,6.562848810265446e-05,0.08883725892651137,-9.863851547241211,0.0,-0.02699001133441925,0.0,0.2180829495191574,-2.7913197,1.1838406324386597,5.0,0.0,0.0,9.879184333078413e-06,1.0,-74.0,5.0,-0.6807246804237366,0.0,-0.2899036407470703,0.0,1602.0,6.12,0.031939525311496235,0.0,0.0,0.0,-0.04922943189740181,1500.0,378.0,1500.0,51.4594394,2.7022932808628206,1418.0,21.300107,-242.0,0.0,0.0,1500.0,1568.0,0.586143970489502,-0.0008031060702422113,-0.06674125790596008,1491.0,0.0,19.0,1000.0,0.0,0.027041813358664513,,,,,,,,,
14.101377999999999,0.005906025879085064,0.9733296632766724,21.380748,-4.593326670175533e-05,0.08883725892651137,-9.746938705444336,0.0,-0.01381725538522005,0.0,0.2179057002067566,-2.7913197,1.0043866634368896,5.0,0.0,0.0,0.00010033644709830237,1.0,-75.0,5.0,-0.6188405752182007,0.0,0.12889081239700317,0.0,1602.0,6.12,0.028099800957108706,0.0,0.0,0.0,-0.0647088810801506,1500.0,378.0,1500.0,51.4594394,2.70246781378802,1418.0,21.400273,-243.0,0.0,0.0,1500.0,1568.0,0.592850923538208,0.0007603722175707973,-0.06716843694448471,1491.0,0.0,19.0,1000.0,0.0,0.02519685961306095,,,,,,,,,
14.201313999999998,-0.0006331857875920832,0.9732040166854858,21.460542999999998,0.00015521866408356677,0.08936085770210968,-9.713179588317871,0.0,-0.026460401713848114,0.0,0.21829760074615479,-2.7913194999999997,1.2466732263565063,5.0,0.0,0.0,2.7351701847851656e-05,1.0,-75.0,5.0,-0.6085265874862671,0.0,-0.5352815985679626,0.0,1602.0,6.09,0.031939525311496235,0.0,0.0,0.0,-0.05337391793727875,1500.0,378.0,1500.0,51.4594391,2.7019442150124218,1418.0,21.500208999999998,-242.0,0.0,0.0,1500.0,1568.0,0.5972864031791687,-0.0009688447407802415,-0.06696037203073502,1491.0,0.0,19.0,1000.0,0.0,0.02713659405708313,,,,,,,,,
14.301264999999999,0.005766125395894051,0.9732463955879211,21.581156999999997,-8.349163623796734e-05,0.08936085770210968,-9.524087905883789,0.0,-0.023317191749811172,0.0,0.2181682139635086,-2.7913194999999997,1.2651662826538086,5.0,0.0,0.0,6.280433287795186e-06,1.0,-74.0,5.0,-0.4692874550819397,0.0,-0.21954549849033356,0.0,1603.0,6.09,0.029670597283903602,0.0,0.0,0.0,-0.05687370523810387,1500.0,377.0,1500.0,51.4594391,2.7019442150124218,1417.0,21.60016,-243.0,0.0,0.0,1501.0,1568.0,0.6029394268989563,0.0006989152241165278,-0.06720535457134247,1490.0,0.0,19.0,1000.0,0.0,0.026031309738755226,,,,,,,,,
14.401261999999997,0.0017970504704862833,0.9731972813606262,21.661009999999997,0.00013885989150042293,0.08936085770210968,-9.586851119995117,0.0,-0.01957155391573906,0.0,0.21835190057754517,-2.7913194,1.5348424911499023,5.0,0.0,0.0,-5.583825833203348e-05,1.0,-74.0,5.0,-0.6446256041526794,0.0,-0.17774048447608948,0.0,1603.0,6.0600000000000005,0.0307177948351002,0.0,0.0,0.0,-0.04002789035439491,1500.0,380.0,1500.0,51.4594388,2.7017696820872223,1417.0,21.700156999999997,-242.0,0.0,0.0,1500.0,1568.0,0.603980541229248,-0.0012751475373624596,-0.06711256504058838,1491.0,0.0,19.0,1000.0,0.0,0.0265621580183506,,,,,,,,,
14.501256,0.0009662748198024929,0.9731863737106323,21.780649999999998,-0.00015306209526969242,0.08918632477691024,-9.447988510131836,0.0,-0.022538866847753525,0.0,0.2184319943189621,-2.7913194,1.5804909467697144,5.0,0.0,0.0,3.536571134605442e-05,1.0,-75.0,5.0,-0.7116667032241821,0.0,-0.332440584897995,0.0,1602.0,6.0600000000000005,0.030543261909900768,0.0,0.0,0.0,-0.06915688514709473,1500.0,379.0,1500.0,51.4594388,2.7015951491620225,1418.0,21.800151,-243.0,0.0,0.0,1500.0,1568.0,0.6036763787269592,0.0017306461317866109,-0.06705077737569809,1491.0,0.0,19.0,1000.0,0.0,0.026455434039235115,,,,,,,,,
14.601232999999999,0.0028406826313585043,0.9731070399284363,21.860718,0.00016711699944302503,0.08901179185171082,-9.7427978515625,0.0,-0.014468114823102951,0.0,0.2187519669532776,-2.7913192,1.3583440780639648,5.0,0.0,0.0,3.349269262889403e-05,1.0,-73.0,5.0,-0.6188405752182007,0.0,-0.24974405765533447,0.0,1603.0,6.04,0.033335788713091695,0.0,0.0,0.0,-0.03627484664320946,1500.0,378.0,1501.0,51.4594385,2.701071550386424,1417.0,21.900128,-242.0,0.0,0.0,1500.0,1568.0,0.6041853427886963,-0.0013917527713273854,-0.066627137362957,1490.0,0.0,19.0,1001.0,0.0,0.027769723907113075,,,,,,,,,
14.701607999999998,0.0012847458710893989,0.9731974005699158,21.980746,-2.788213156142594e-05,0.08901179185171082,-9.651412963867188,0.0,-0.016528481617569923,0.0,0.21845974028110504,-2.7913192,1.261645793914795,5.0,0.0,0.0,1.004867253579951e-05,1.0,-75.0,5.0,-0.7580797672271729,0.0,-0.16290542483329773,0.0,1603.0,6.04,0.028623399732707007,0.0,0.0,0.0,-0.05052473396062851,1500.0,375.0,1500.0,51.4594385,2.7014206162368235,1417.0,22.000503,-242.0,0.0,0.0,1500.0,1569.0,0.6043130159378052,0.0003593379657098904,-0.06716751307249069,1490.0,0.0,19.0,1000.0,0.0,0.025508414953947067,,,,,,,,,
14.801253999999998,0.0010941321961581707,0.9731547832489014,22.061024,2.07695843746516e-05,0.08918632477691024,-9.719367980957031,0.0,-0.01474195159971714,0.0,0.21861431002616882,-2.7913189999999997,1.5308698415756226,5.0,0.0,0.0,1.4881621530063805e-05,1.0,-75.0,5.0,-0.7013527154922485,0.0,-0.2504795789718628,0.0,1602.0,6.03,0.029845130209103034,-0.022263769060373306,0.0,0.0,-0.04921811446547508,1500.0,377.0,1500.0,51.459438299999995,2.701071550386424,1418.0,22.100149,-243.0,0.0,0.0,1500.0,1568.0,0.6044141054153442,-0.00014898247187668544,-0.06706307083368301,1491.0,0.0,19.0,1000.0,0.013871853239834309,0.02608277089893818,,,,,,,,,
14.901258999999998,9.278456127503887e-05,0.973138153553009,22.180844999999998,-7.779393503282625e-06,0.08918632477691024,-9.526351928710938,0.0,-0.01644524559378624,0.0,0.21868033707141876,-2.7913189999999997,1.5306284427642822,5.0,0.0,0.0,-1.8603829654337853e-05,1.0,-75.0,5.0,-0.7116667032241821,0.0,-0.3065452575683594,0.0,1602.0,6.03,0.029845130209103034,-0.022263769060373306,0.0,0.0,-0.051846232265233994,1500.0,378.0,1500.0,51.459438299999995,2.700897017461225,1418.0,22.200153999999998,-242.0,0.0,0.0,1500.0,1568.0,0.6042559742927551,6.343570393899559e-05,-0.06708036363124847,1491.0,0.0,19.0,1000.0,0.013871853239834309,0.026099922135472298,,,,,,,,,
15.001256,0.0004176735819783062,0.9731547236442566,22.260989,7.488607752793692e-05,0.08883725892651137,-9.624319076538086,0.0,-0.012911931611597538,0.0,0.21868163347244263,-2.7913188,1.3998610973358154,5.0,0.0,0.0,9.652845508332463e-06,1.0,-75.0,5.0,-0.6807246804237366,0.0,0.11112407594919205,0.0,1602.0,6.01,0.02879793265790644,-0.04452753812074661,0.0,0.0,-0.04499903321266174,1500.0,378.0,1500.0,51.4594381,2.700897017461225,1418.0,22.300151,-242.0,0.0,0.0,1500.0,1568.0,0.604476273059845,-0.00033283440890496984,-0.0670352429151535,1491.0,0.0,19.0,1000.0,0.027743706479668617,0.025584833696484566,,,,,,,,,
15.101617,0.0004463001969270408,0.9730728268623352,22.380729,-4.97085421793548e-05,0.08901179185171082,-9.625659942626953,0.0,-0.021744243800640106,0.0,0.21895524859428406,-2.7913186,1.7494840621948242,5.0,0.0,0.0,-1.5174101522553289e-05,1.0,-74.0,5.0,-0.6755676865577698,0.0,-0.5771660208702087,0.0,1602.0,6.01,0.0317649923862968,-0.04452753812074661,0.0,0.0,-0.06497115641832352,1500.0,376.0,1500.0,51.4594379,2.700547951610826,1418.0,22.400512,-243.0,0.0,0.0,1500.0,1568.0,0.6042900085449219,0.0006764475982179802,-0.06675276160240173,1491.0,0.0,19.0,1000.0,0.027743706479668617,0.027056824415922165,,,,,,,,,
15.201230999999998,-0.003836462739855051,0.973109781742096,22.461121,6.32011778525824e-05,0.08866272600131195,-9.39317512512207,0.0,-0.007773820776492357,0.0,0.21887782216072083,-2.7913186,1.9485483169555664,5.0,0.0,0.0,4.963603833388178e-05,1.0,-74.0,5.0,-0.6188405752182007,0.0,-0.07127662003040314,0.0,1602.0,6.01,0.030543261909900768,-0.06679131090641022,0.0,0.0,-0.048443928360939026,1500.0,376.0,1500.0,51.4594379,2.700547951610826,1418.0,22.500125999999998,-242.0,0.0,0.0,1500.0,1568.0,0.6056482791900635,-0.0008828470689812309,-0.06671100854873657,1491.0,0.0,19.0,1000.0,0.0416155643761158,0.026448890566825867,,,,,,,,,
15.301628,5.900103133171797e-05,0.9730978608131409,22.581505999999997,-0.0001788148987709784,0.08883725892651137,-9.691732406616211,0.0,-0.023455986753106117,0.0,0.21891534328460693,-2.7913186,1.6705514192581177,5.0,0.0,0.0,2.488316575357359e-05,1.0,-74.0,5.0,-0.7065097093582153,0.0,-0.15390075743198395,0.0,1602.0,6.01,0.030019663134302467,-0.06679131090641022,0.0,0.0,-0.07094074040651321,1500.0,379.0,1500.0,51.4594379,2.700547951610826,1418.0,22.600523,-242.0,0.0,0.0,1500.0,1568.0,0.6121649146080017,0.0015237257971685598,-0.06687430292367935,1491.0,0.0,19.0,1000.0,0.0416155643761158,0.026162711903452873,,,,,,,,,
15.401248999999998,0.005192095879465342,0.9729928970336914,22.661129,0.0002162140581198915,0.08883725892651137,-9.832406997680664,0.0,-0.010760590434074402,0.0,0.2192746102809906,-2.7913185,1.6188466548919678,5.0,0.0,0.0,-4.37690135043035e-05,1.0,-72.0,5.0,-0.6549396514892578,0.0,-0.28193673491477966,0.0,1602.0,5.95,0.033335788713091695,-0.08905507624149323,0.0,0.0,-0.043058738112449646,1500.0,380.0,1500.0,51.459437699999995,2.700024352835228,1418.0,22.700143999999998,-241.0,0.0,0.0,1500.0,1568.0,0.6176190972328186,-0.0020324423604617106,-0.06654632091522217,1491.0,0.0,19.0,1000.0,0.04855148866772652,0.027840211987495422,,,,,,,,,
15.501574,0.0013646262232214212,0.9731361269950867,22.780782,-0.0001175350565687855,0.08901179185171082,-9.744929313659668,0.0,-0.02330929972231388,0.0,0.21878217160701752,-2.7913185,1.5429233312606812,5.0,0.0,0.0,-2.2146852664038996e-05,1.0,-74.0,5.0,-0.7116667032241821,0.0,-0.059649378061294556,0.0,1603.0,5.95,0.026878070480712675,-0.08905507624149323,0.0,0.0,-0.056711237877607346,1500.0,379.0,1500.0,51.459437699999995,2.700547951610826,1417.0,22.800469,-242.0,0.0,0.0,1501.0,1568.0,0.6321104764938354,0.0009579820213837418,-0.06732145696878433,1490.0,0.0,19.0,1000.0,0.04855148866772652,0.024662043899297714,,,,,,,,,
15.601232999999999,0.008177142590284348,0.9730591177940369,22.861068,-7.803902359095481e-05,0.08918632477691024,-9.665399551391602,0.0,-0.016925808042287827,0.0,0.21901661157608032,-2.7913181,1.3702794313430786,5.0,0.0,0.0,-8.075034719513259e-05,1.0,-73.0,5.0,-0.7065097093582153,0.0,-0.3270304799079895,0.0,1603.0,5.89,0.029845130209103034,-0.04452753812074661,0.0,0.0,-0.05696051940321922,1500.0,377.0,1500.0,51.4594381,2.7001988857604275,1417.0,22.900128,-242.0,0.0,0.0,1500.0,1568.0,0.641743540763855,0.00031927280070796613,-0.06711727380752563,1491.0,0.0,19.0,1000.0,0.07629519701004028,0.026137249544262886,,,,,,,,,
15.701548999999998,0.021145619451999664,0.9730480313301086,22.980741,-1.7668476915364078e-06,0.08901179185171082,-9.813504219055176,0.0,-0.01685890182852745,0.0,0.21909655630588531,-2.7913181,1.0963406562805176,5.0,0.0,0.0,-0.0001291093311917181,1.0,-73.0,5.0,-0.7477657198905945,0.0,-0.22038742899894714,0.0,1603.0,5.89,0.0301941960595019,-0.04452753812074661,0.0,0.0,-0.03486376255750656,1500.0,376.0,1500.0,51.4594381,2.7001988857604275,1417.0,23.000443999999998,-242.0,0.0,0.0,1500.0,1568.0,0.663291871547699,-0.00046144694937161416,-0.06694912165403366,1491.0,0.0,19.0,1000.0,0.07629519701004028,0.026306338608264923,,,,,,,,,
15.801231,0.025460125878453255,0.9730762839317322,23.061705999999997,-6.625618155019335e-05,0.08883725892651137,-9.893777847290039,0.0,-0.019975505769252777,0.0,0.21901561319828033,-2.7913177,1.1607862710952759,5.0,0.0,0.0,-8.917188706543653e-05,1.0,-72.0,5.0,-0.629154622554779,0.0,-0.37681302428245544,0.0,1603.0,5.75,0.0291469985083053,-0.06679131090641022,0.0,0.0,-0.04670829325914383,1500.0,379.0,1500.0,51.4594379,2.7001988857604275,1417.0,23.100126,-242.0,0.0,0.0,1501.0,1568.0,0.6788944005966187,0.00046580576255272665,-0.06701015681028366,1490.0,0.0,19.0,1001.0,0.10403890162706375,0.025779129937291145,,,,,,,,,
15.901566,0.027297336608171463,0.9731143116950989,23.180830999999998,8.87977254483573e-06,0.08883725892651137,-9.602044105529785,0.0,-0.004542734939604998,0.0,0.2188883274793625,-2.7913177,1.3490744829177856,5.0,0.0,0.0,8.081228552114421e-05,1.0,-73.0,5.0,-0.7735507488250732,0.0,-0.09049975126981735,0.0,1603.0,5.75,0.028099800957108706,-0.06679131090641022,0.0,0.0,-0.03921319544315338,1500.0,378.0,1500.0,51.4594379,2.7003734186856265,1417.0,23.200461,-241.0,0.0,0.0,1500.0,1569.0,0.7134649157524109,-0.00034358074504094123,-0.06708373874425888,1490.0,0.0,19.0,1000.0,0.10403890162706375,0.025223858654499054,,,,,,,,,
16.001311,0.03622395172715187,0.9731016755104065,23.26146,-0.00011889037702332255,0.08883725892651137,-9.466402053833008,0.0,-0.016633732244372368,0.0,0.21890506148338318,-2.7913175999999997,1.3891491889953613,5.0,0.0,0.0,2.9015578139104813e-05,1.0,-73.0,5.0,-0.7374517321586609,0.0,-0.4022051990032196,0.0,1602.0,5.72,0.02879793265790644,-0.055659420788288116,0.0,0.0,-0.05228014662861824,1500.0,381.0,1500.0,51.459438,2.7003734186856265,1418.0,23.300206,-241.0,0.0,0.0,1500.0,1568.0,0.7345440983772278,0.0010085632917252515,-0.06705356389284134,1491.0,0.0,19.0,1000.0,0.11097482591867447,0.02564496546983719,,,,,,,,,
16.101253,0.04315396398305893,0.9731370210647583,23.380793999999998,0.00016090878148074836,0.08901179185171082,-9.843704223632812,0.0,-0.003255552379414439,0.0,0.21875183284282684,-2.7913175999999997,1.7592723369598389,5.0,0.0,0.0,-2.3672678760502974e-06,1.0,-72.0,5.0,-0.7271376848220825,0.0,-0.24361863732337952,0.0,1602.0,5.72,0.028448866807507574,-0.055659420788288116,0.0,0.0,-0.01837391033768654,1500.0,381.0,1500.0,51.459438,2.700722484536026,1418.0,23.400147999999998,-240.0,0.0,0.0,1500.0,1568.0,0.77178555727005,-0.0016566821640333267,-0.06712696701288223,1491.0,0.0,19.0,1000.0,0.11097482591867447,0.025415975600481033,,,,,,,,,
16.201237,0.059212133288383484,0.9732900261878967,23.461078,-0.00018576926997226263,0.08883725892651137,-9.978317260742188,0.0,-0.018334265798330307,0.0,0.2181999683380127,-2.7913175,1.278601884841919,5.0,0.0,0.0,3.302195606844584e-05,1.0,-75.0,5.0,-0.6755676865577698,0.0,-0.12110812962055206,0.0,1602.0,5.65,0.02356194490192345,-0.07792319357395172,0.0,0.0,-0.04273011535406113,1500.0,379.0,1500.0,51.459437799999996,2.7015951491620225,1418.0,23.500132,-242.0,0.0,0.0,1500.0,1568.0,0.7941432595252991,0.0017210928215989272,-0.0675630271434784,1491.0,0.0,19.0,1000.0,0.11791075021028519,0.023034391924738884,,,,,,,,,
16.301259,0.06881128251552582,0.9731721878051758,23.58116,-3.679392982121363e-05,0.08866272600131195,-10.328609466552734,0.0,0.005185075104236603,0.0,0.21858693659305573,-2.7913175,1.620549201965332,5.0,0.0,0.0,0.00015338796839917186,1.0,-73.0,5.0,-0.6755676865577698,0.0,-0.5946745872497559,0.0,1602.0,5.65,0.0301941960595019,-0.07792319357395172,0.0,0.0,-0.046529002487659454,1500.0,378.0,1500.0,51.459437799999996,2.701246083311624,1418.0,23.600154,-242.0,0.0,0.0,1500.0,1568.0,0.8342077732086182,0.00021801341484809945,-0.06684226542711258,1491.0,0.0,19.0,1000.0,0.11791075021028519,0.026226382702589035,,,,,,,,,
16.401241,0.07929607480764389,0.9731392860412598,23.661147999999997,-0.0002076287445706136,0.08901179185171082,-10.187411308288574,0.0,-0.01899653673171997,0.0,0.21865369379520416,-2.7913174,1.3631417751312256,5.0,0.0,0.0,-3.210505793945049e-05,1.0,-71.0,5.0,-0.6755676865577698,0.0,-0.29146087169647217,0.0,1602.0,5.59,0.0317649923862968,-0.11131884157657623,0.0,0.0,-0.04028589278459549,1500.0,381.0,1500.0,51.4594375,2.701071550386424,1418.0,23.700136,-241.0,0.0,0.0,1500.0,1568.0,0.8583562970161438,0.0013250260218586893,-0.066779226064682,1491.0,0.0,18.0,1000.0,0.1248466819524765,0.027037445455789566,,,,,,,,,
16.501441999999997,0.08863222599029541,0.97321617603302,23.780787999999998,0.00039418217114265406,0.08883725892651137,-9.673442840576172,0.0,-0.005373806226998568,0.0,0.21840745210647583,-2.7913174,1.2106817960739136,5.0,0.0,0.0,-0.0001433043991716898,1.0,-70.0,5.0,-0.7116667032241821,0.0,0.2673664391040802,0.0,1602.0,5.59,0.029321531433504737,-0.11131884157657623,0.0,0.0,0.007253531366586685,1500.0,381.0,1500.0,51.4594375,2.7014206162368235,1418.0,23.800337,-241.0,0.0,0.0,1500.0,1568.0,0.8992891311645508,-0.0030709014559433777,-0.06693454086780548,1491.0,0.0,18.0,1000.0,0.1248466819524765,0.025853615254163742,,,,,,,,,
16.601262,0.09135021269321442,0.9732944369316101,23.861015,-0.0002028540562888561,0.08866272600131195,-9.642913818359375,0.0,-0.013401329517364502,0.0,0.21812136471271515,-2.7913172,1.502258539199829,5.0,0.0,0.0,-2.7317770275735322e-05,1.0,-73.0,5.0,-0.6807246804237366,0.0,-0.8762112259864807,0.0,1602.0,5.59,0.027401669256310976,-0.10018695890903473,0.0,0.0,-0.05560114234685898,1500.0,381.0,1500.0,51.4594376,2.7019442150124218,1418.0,23.900157,-242.0,0.0,0.0,1500.0,1568.0,0.9233988523483276,0.0015151151263725746,-0.06711993366479874,1491.0,0.0,18.0,1000.0,0.13871853053569794,0.024819308891892433,,,,,,,,,
16.701445999999997,0.10208586603403091,0.9734053015708923,23.980922,0.00019738438439157477,0.08866272600131195,-9.716825485229492,0.0,0.003555199597030878,0.0,0.2177121937274933,-2.7913172,1.3760673999786377,5.0,0.0,0.0,-4.025287161430889e-06,1.0,-73.0,5.0,-0.8096497654914856,0.0,0.5052261352539062,0.0,1603.0,5.59,0.023387411976724018,-0.10018695890903473,0.0,0.0,-0.007206220179796219,1500.0,378.0,1500.0,51.4594376,2.70246781378802,1417.0,24.000341,-242.0,0.0,0.0,1501.0,1568.0,0.9608985185623169,-0.0017642512456062353,-0.06753947585821152,1490.0,0.0,18.0,1000.0,0.13871853053569794,0.022850485518574715,,,,,,,,,
16.801313,0.1126822978258133,0.9734075665473938,24.061733,-0.00015182830267092916,0.08866272600131195,-9.815339088439941,0.0,-0.017020028084516525,0.0,0.21769747138023376,-2.7913172,1.2684717178344727,5.0,0.0,0.0,4.790297312888661e-06,1.0,-75.0,5.0,-0.696195662021637,0.0,-0.595491886138916,0.0,1603.0,5.5200000000000005,0.023911010752322315,-0.12245073169469833,0.0,0.0,-0.0479377806186676,1500.0,377.0,1500.0,51.4594374,2.702642346713219,1417.0,24.100208,-242.0,0.0,0.0,1500.0,1568.0,0.9837539792060852,0.001190147315619184,-0.06746959686279297,1491.0,0.0,18.0,1000.0,0.13871853053569794,0.023096008226275444,,,,,,,,,
16.901441999999996,0.11943885684013367,0.9734253287315369,24.180728,9.498681575674757e-05,0.08848819307611251,-9.8063383102417,0.0,-0.004755635280162096,0.0,0.2176225334405899,-2.7913172,1.1232224702835083,5.0,0.0,0.0,-1.2172865143932074e-05,1.0,-74.0,5.0,-0.8148068189620972,0.0,0.28978949785232544,0.0,1603.0,5.5200000000000005,0.024434609527920616,-0.12245073169469833,0.0,0.0,-0.01968630962073803,1500.0,378.0,1500.0,51.4594374,2.702816879638419,1417.0,24.200336999999998,-242.0,0.0,0.0,1500.0,1568.0,1.0214630365371704,-0.0007756816227610375,-0.06736104935407639,1491.0,0.0,18.0,1000.0,0.13871853053569794,0.023372141644358635,,,,,,,,,
17.001215000000002,0.12446844577789307,0.9734065532684326,24.261540999999998,7.758513395447085e-06,0.08848819307611251,-9.784229278564453,0.0,-0.0117290448397398,0.0,0.21766620874404907,-2.791317,1.3256458044052124,5.0,0.0,0.0,4.225197901214037e-07,1.0,-74.0,5.0,-0.7580797672271729,0.0,-0.4130346179008484,0.0,1603.0,5.49,0.02600540585471551,-0.12245073169469833,0.0,0.0,-0.03915838897228241,1500.0,377.0,1500.0,51.4594374,2.702816879638419,1417.0,24.30011,-242.0,0.0,0.0,1501.0,1568.0,1.0441230535507202,0.0002979536305202245,-0.06720903515815735,1490.0,0.0,18.0,1001.0,0.15259039402008057,0.024166498333215714,,,,,,,,,
17.101481999999997,0.1300588995218277,0.9734377264976501,24.380898,4.5623144323596016e-05,0.08848819307611251,-9.690591812133789,0.0,-0.0010118072386831045,0.0,0.21752199530601501,-2.791317,1.1292932033538818,5.0,0.0,0.0,6.092714078060424e-05,1.0,-74.0,5.0,-0.7838647365570068,0.0,-0.19020847976207733,0.0,1603.0,5.49,0.026179938779914945,-0.12245073169469833,0.0,0.0,-0.02577320858836174,1500.0,377.0,1500.0,51.4594374,2.7031659454888177,1417.0,24.400377,-242.0,0.0,0.0,1500.0,1569.0,1.0801522731781006,-0.0005682894482984867,-0.06721752882003784,1490.0,0.0,18.0,1000.0,0.15259039402008057,0.024185696616768837,,,,,,,,,
17.201243999999996,0.1352710872888565,0.9734678268432617,24.461098999999997,-1.1297943620573695e-05,0.08883725892651137,-9.599077224731445,0.0,-0.004841201938688755,0.0,0.21736164391040802,-2.7913170999999997,1.4371649026870728,5.0,0.0,0.0,2.5632269210707662e-05,1.0,-74.0,5.0,-0.9540459513664246,0.0,-0.11858485639095306,0.0,1602.0,5.45,0.02530727415391778,-0.12245073169469833,0.0,0.0,-0.0315265990793705,1500.0,377.0,1500.0,51.4594374,2.703340478414017,1418.0,24.500138999999997,-242.0,0.0,0.0,1500.0,1568.0,1.102184772491455,0.0002219667233922844,-0.06744654476642609,1491.0,0.0,19.0,1000.0,0.14565446972846985,0.023775555193424225,,,,,,,,,
17.301581999999996,0.141951784491539,0.9734434485435486,24.581476,-2.668830507185598e-05,0.08866272600131195,-9.695454597473145,0.0,-0.013698500581085682,0.0,0.2174350917339325,-2.7913170999999997,1.330295443534851,5.0,0.0,0.0,-2.6165116802774068e-05,1.0,-73.0,5.0,-0.7168236970901489,0.0,-0.3605805039405823,0.0,1602.0,5.45,0.02757620218151041,-0.12245073169469833,0.0,0.0,-0.03021925315260887,1500.0,377.0,1500.0,51.4594374,2.703340478414017,1418.0,24.600476999999998,-242.0,0.0,0.0,1500.0,1568.0,1.1373271942138672,0.000330567698614372,-0.06714832037687302,1491.0,0.0,19.0,1000.0,0.14565446972846985,0.02491939626634121,,,,,,,,,
17.401261999999996,0.14825044572353363,0.9734761118888855,24.661467,4.7529168098089205e-05,0.08866272600131195,-9.730070114135742,0.0,-0.005205108784139156,0.0,0.21730919182300568,-2.7913173,1.2863810062408447,5.0,0.0,0.0,1.0942088797791958e-05,1.0,-74.0,5.0,-0.696195662021637,0.0,-0.14530955255031586,0.0,1602.0,5.42,0.027052603405912107,-0.14471450448036194,0.0,0.0,-0.022777652367949486,1500.0,377.0,1500.0,51.459437199999996,2.7035150113392166,1418.0,24.700156999999997,-242.0,0.0,0.0,1500.0,1568.0,1.1587721109390259,-0.00044544340580740706,-0.06719055771827698,1491.0,0.0,19.0,1000.0,0.13178260624408722,0.02462685853242874,,,,,,,,,
17.501548999999997,0.1535455584526062,0.9735243916511536,24.780708,-1.682915966871753e-05,0.08918632477691024,-9.512406349182129,0.0,-0.008524984121322632,0.0,0.21703366935253143,-2.7913173,1.619106650352478,5.0,0.0,0.0,1.763686518591025e-05,1.0,-75.0,5.0,-0.7271376848220825,0.0,-0.31315624713897705,0.0,1602.0,5.42,0.025656340004316644,-0.14471450448036194,0.0,0.0,-0.036493659019470215,1500.0,376.0,1500.0,51.459437199999996,2.704038610114815,1418.0,24.800444,-243.0,0.0,0.0,1500.0,1568.0,1.1918398141860962,0.00043524966259391086,-0.06760000437498093,1491.0,0.0,19.0,1000.0,0.13178260624408722,0.02401953563094139,,,,,,,,,
17.601211,0.1553761065006256,0.9735285043716431,24.861127999999997,7.118003464843877e-05,0.08936085770210968,-9.44933795928955,0.0,-0.0003957708249799907,0.0,0.2169807255268097,-2.7913172,1.967357873916626,5.0,0.0,0.0,-0.00023373224204479052,1.0,-75.0,5.0,-0.8302778005599976,0.0,-0.15169627964496613,0.0,1602.0,5.42,0.02600540585471551,-0.14471450448036194,0.0,0.0,-0.02782326377928257,1500.0,378.0,1500.0,51.459437199999996,2.7042131430400143,1418.0,24.900105999999997,-242.0,0.0,0.0,1500.0,1568.0,1.2118263244628906,-0.00016019504000451922,-0.06765241175889969,1491.0,0.0,19.0,1000.0,0.13871853053569794,0.024184448644518852,,,,,,,,,
17.701611,0.16831839084625244,0.9735788702964783,24.980888,5.9062830489676816e-05,0.08970992355250854,-9.466670036315918,0.0,-0.00705226743593812,0.0,0.21673625707626343,-2.7913175,2.1656901836395264,5.0,0.0,0.0,-9.459916684770977e-05,1.0,-75.0,5.0,-0.8405918478965759,0.0,-0.25150489807128906,0.0,1602.0,5.5200000000000005,0.024783675378319478,-0.14471450448036194,0.0,0.0,-0.023644203320145607,1500.0,376.0,1500.0,51.4594374,2.704562208890413,1418.0,25.000505999999998,-242.0,0.0,0.0,1500.0,1568.0,1.2414695024490356,-0.00048020305457518905,-0.0679221823811531,1491.0,0.0,19.0,1000.0,0.13871853053569794,0.0235831867903471,,,,,,,,,
17.80124,0.16482777893543243,0.9736024141311646,25.061508,-2.3226167209123654e-05,0.0895353906273091,-9.425861358642578,0.0,-0.0016654488863423467,0.0,0.21666769683361053,-2.7913175,1.7421410083770752,5.0,0.0,0.0,-3.079692472029246e-05,1.0,-75.0,5.0,-0.696195662021637,0.0,-0.27419722080230713,0.0,1602.0,5.5200000000000005,0.024260076602721184,-0.12245073169469833,0.0,0.0,-0.03521998971700668,1500.0,377.0,1500.0,51.4594374,2.7047367418156125,1418.0,25.100134999999998,-243.0,0.0,0.0,1500.0,1568.0,1.2584223747253418,0.0002974800676833204,-0.06788761913776398,1491.0,0.0,19.0,1000.0,0.11791075021028519,0.0233418308198452,,,,,,,,,
17.901545,0.16961190104484558,0.9736108183860779,25.180761999999998,4.282395217045159e-05,0.0895353906273091,-9.560232162475586,0.0,-0.005543265026062727,0.0,0.21661724150180817,-2.7913175,1.5903056859970093,5.0,0.0,0.0,-1.938276648113565e-05,1.0,-75.0,5.0,-0.7065097093582153,0.0,-0.15365755558013916,0.0,1603.0,5.5200000000000005,0.024434609527920616,-0.12245073169469833,0.0,0.0,-0.02344008907675743,1500.0,378.0,1500.0,51.4594374,2.704911274740812,1417.0,25.20044,-244.0,0.0,0.0,1501.0,1568.0,1.277199387550354,-0.00038730840672753745,-0.06789746135473251,1490.0,0.0,19.0,1000.0,0.11791075021028519,0.02342916652560234,,,,,,,,,
18.001582999999997,0.16909722983837128,0.9736213088035583,25.26146,-1.440250163628915e-05,0.0895353906273091,-9.652645111083984,0.0,-0.007092001847922802,0.0,0.21658119559288025,-2.7913175,1.489546775817871,5.0,0.0,0.0,-1.3031918069791736e-05,1.0,-77.0,5.0,-0.77870774269104,0.0,-0.24600684642791748,0.0,1603.0,5.5200000000000005,0.024260076602721184,-0.17811015248298645,0.0,0.0,-0.031154131516814232,1500.0,375.0,1500.0,51.4594369,2.704911274740812,1417.0,25.300478,-244.0,0.0,0.0,1500.0,1568.0,1.288219690322876,0.00022243797806955232,-0.0679115355014801,1491.0,0.0,18.0,1000.0,0.11791075021028519,0.023283928632736206,,,,,,,,,
18.101438,0.16862168908119202,0.9736244678497314,25.380724999999998,1.958013648016611e-05,0.0895353906273091,-9.657639503479004,0.0,-0.007072060368955135,0.0,0.21656407415866852,-2.7913175,1.4086709022521973,5.0,0.0,0.0,-1.9872608345332932e-05,1.0,-76.0,5.0,-0.6549396514892578,0.0,-0.09670030325651169,0.0,1603.0,5.5200000000000005,0.024260076602721184,-0.17811015248298645,0.0,0.0,-0.0227852463722229,1500.0,379.0,1500.0,51.4594369,2.704911274740812,1417.0,25.400333,-243.0,0.0,0.0,1500.0,1568.0,1.299816370010376,-0.0003061211021567731,-0.0679059699177742,1491.0,0.0,18.0,1000.0,0.11791075021028519,0.02332734875380993,,,,,,,,,
18.201214,0.1672423928976059,0.9736258387565613,25.461087,-2.1515182923887426e-05,0.0895353906273091,-9.695893287658691,0.0,-0.008679424412548542,0.0,0.2165612280368805,-2.7913174,1.4237229824066162,5.0,0.0,0.0,-2.0071150710657473e-05,1.0,-77.0,5.0,-0.7890217900276184,0.0,-0.2171066403388977,0.0,1603.0,5.5200000000000005,0.024260076602721184,-0.21150580048561096,0.0,0.0,-0.028729844838380814,1500.0,379.0,1500.0,51.4594366,2.704911274740812,1417.0,25.500109,-243.0,0.0,0.0,1501.0,1568.0,1.3070271015167236,0.00015151777392663672,-0.06789442151784897,1490.0,0.0,18.0,1001.0,0.1248466819524765,0.02333209477365017,,,,,,,,,
18.301434,0.16484509408473969,0.973634660243988,25.581319999999998,4.725813814193698e-05,0.0895353906273091,-9.72219467163086,0.0,-0.008201300166547298,0.0,0.21653129160404205,-2.7913174,1.3877208232879639,5.0,0.0,0.0,-1.894052837760385e-05,1.0,-78.0,5.0,-0.7219806909561157,0.0,-0.09736116230487823,0.0,1603.0,5.5200000000000005,0.024260076602721184,-0.21150580048561096,0.0,0.0,-0.02231057919561863,1500.0,375.0,1500.0,51.4594366,2.704911274740812,1417.0,25.600329,-243.0,0.0,0.0,1500.0,1569.0,1.3137460947036743,-0.00027405312512697065,-0.06787795573472977,1490.0,0.0,18.0,1000.0,0.1248466819524765,0.023288115859031677,,,,,,,,,
18.401266999999997,0.1623954474925995,0.9736352562904358,25.661400999999998,-9.29353631944029e-07,0.08936085770210968,-9.721549987792969,0.0,-0.0097473980858922,0.0,0.2165321409702301,-2.7913173,1.4022644758224487,5.0,0.0,0.0,-1.6161799807008508e-05,1.0,-77.0,5.0,-0.77870774269104,0.0,-0.23486483097076416,0.0,1602.0,5.5200000000000005,0.024260076602721184,-0.26716524362564087,0.0,0.0,-0.02696617692708969,1500.0,376.0,1500.0,51.4594361,2.704911274740812,1418.0,25.700162,-243.0,0.0,0.0,1500.0,1568.0,1.3183516263961792,9.02491067931049e-05,-0.06786321848630905,1491.0,0.0,19.0,1000.0,0.13178260624408722,0.023299528285861015,,,,,,,,,
18.501599,0.15803420543670654,0.9736329913139343,25.780752,4.109214162089246e-05,0.08936085770210968,-9.725578308105469,0.0,-0.008765915408730507,0.0,0.21655525267124176,-2.7913173,1.3770769834518433,5.0,0.0,0.0,-1.1996580467634383e-05,1.0,-76.0,5.0,-0.8509058356285095,0.0,-0.12425287812948227,0.0,1602.0,5.5200000000000005,0.02408554367752175,-0.26716524362564087,0.0,0.0,-0.022575734183192253,1500.0,376.0,1500.0,51.4594361,2.704911274740812,1418.0,25.800494,-243.0,0.0,0.0,1500.0,1568.0,1.3215351104736328,-0.00019785227435726037,-0.0678602010011673,1491.0,0.0,19.0,1000.0,0.13178260624408722,0.023188823834061623,,,,,,,,,
18.601248,0.15558773279190063,0.9736206531524658,25.861041,-3.66084658419262e-06,0.08936085770210968,-9.722302436828613,0.0,-0.010247988626360893,0.0,0.2166091799736023,-2.791317,1.3849972486495972,5.0,0.0,0.0,-4.416474503572926e-06,1.0,-77.0,5.0,-0.7271376848220825,0.0,-0.23702064156532288,0.0,1602.0,5.49,0.024260076602721184,-0.3450884222984314,0.0,0.0,-0.026011258363723755,1500.0,376.0,1500.0,51.4594354,2.704911274740812,1418.0,25.900143,-243.0,0.0,0.0,1500.0,1568.0,1.32461678981781,4.798138045835867e-05,-0.06783279776573181,1491.0,0.0,19.0,1000.0,0.15259039402008057,0.023284440860152245,,,,,,,,,
18.701569,0.15141920745372772,0.9736122488975525,25.98071,2.667147135479108e-05,0.08936085770210968,-9.723045349121094,0.0,-0.007970580831170082,0.0,0.21665827929973602,-2.791317,1.397377610206604,5.0,0.0,0.0,-1.830025789824459e-05,1.0,-77.0,5.0,-0.6807246804237366,0.0,-0.13148969411849976,0.0,1602.0,5.49,0.023911010752322315,-0.3450884222984314,0.0,0.0,-0.021883873268961906,1500.0,377.0,1500.0,51.4594354,2.7047367418156125,1418.0,26.000463999999997,-243.0,0.0,0.0,1500.0,1568.0,1.327265977859497,-0.00013792378647614522,-0.06783498823642731,1491.0,0.0,19.0,1000.0,0.15259039402008057,0.02317206747829914,,,,,,,,,
18.801218,0.14913049340248108,0.9735967516899109,26.061716,5.064246501749762e-06,0.08936085770210968,-9.710859298706055,0.0,-0.009289064444601536,0.0,0.21672751009464264,-2.7913169,1.4010460376739502,5.0,0.0,0.0,-1.4934799618160498e-05,1.0,-77.0,5.0,-0.7838647365570068,0.0,-0.2257738560438156,0.0,1602.0,5.45,0.024260076602721184,-0.48980292677879333,0.0,0.0,-0.02483956702053547,1500.0,374.0,1500.0,51.459434099999996,2.704562208890413,1418.0,26.100113,-242.0,0.0,0.0,1500.0,1568.0,1.3303579092025757,1.995788631020088e-05,-0.06778832525014877,1491.0,0.0,19.0,1000.0,0.1595263034105301,0.023312222212553024,,,,,,,,,
18.901612999999998,0.14576444029808044,0.9735842943191528,26.180936,2.6138627826386005e-06,0.08918632477691024,-9.72257137298584,0.0,-0.008134988136589527,0.0,0.21679343283176422,-2.7913169,1.3968898057937622,5.0,0.0,0.0,-1.3446406446007433e-05,1.0,-76.0,5.0,-0.8251208066940308,0.0,-0.12337404489517212,0.0,1602.0,5.45,0.023911010752322315,-0.48980292677879333,0.0,0.0,-0.021922197192907333,1500.0,378.0,1500.0,51.459434099999996,2.704387675965214,1418.0,26.200508,-242.0,0.0,0.0,1500.0,1568.0,1.3342894315719604,-0.00013267389363830578,-0.06781046837568283,1491.0,0.0,19.0,1000.0,0.1595263034105301,0.023150430992245674,,,,,,,,,
19.001239999999996,0.14418070018291473,0.9735661745071411,26.261485,9.224806853407553e-06,0.08918632477691024,-9.707185745239258,0.0,-0.009107882156968117,0.0,0.21687328815460205,-2.7913167999999997,1.4059453010559082,5.0,0.0,0.0,-1.4124351129569155e-05,1.0,-77.0,5.0,-0.6755676865577698,0.0,-0.21807512640953064,0.0,1602.0,5.44,0.024260076602721184,-0.6011217832565308,0.0,0.0,-0.023863188922405243,1500.0,375.0,1500.0,51.4594331,2.7042131430400143,1418.0,26.300134999999997,-242.0,0.0,0.0,1500.0,1568.0,1.3380019664764404,-2.2764638905252184e-05,-0.06777461618185043,1491.0,0.0,19.0,1000.0,0.1664622575044632,0.02326899580657482,,,,,,,,,
19.101594,0.1409548819065094,0.9735576510429382,26.380882999999997,-2.923522919321478e-06,0.08918632477691024,-9.734989166259766,0.0,-0.008571046404540539,0.0,0.216919407248497,-2.7913167999999997,1.3960669040679932,5.0,0.0,0.0,-9.444090527135287e-07,1.0,-77.0,5.0,-0.7013527154922485,0.0,-0.14742422103881836,0.0,1603.0,5.44,0.023911010752322315,-0.6011217832565308,0.0,0.0,-0.020282072946429253,1500.0,377.0,1500.0,51.4594331,2.7042131430400143,1417.0,26.400489,-242.0,0.0,0.0,1501.0,1568.0,1.3424158096313477,-9.647722044125963e-05,-0.06780345737934113,1490.0,0.0,19.0,1000.0,0.1664622575044632,0.023114509880542755,,,,,,,,,
19.201248,0.14006637036800385,0.9735378623008728,26.461053,1.094931640043792e-07,0.08936085770210968,-9.738905906677246,0.0,-0.009136230684816837,0.0,0.21699677407741547,-2.7913167999999997,1.4128779172897339,5.0,0.0,0.0,-6.209545763616697e-06,1.0,-77.0,5.0,-0.7683937549591064,0.0,-0.25611698627471924,0.0,1603.0,5.42,0.02408554367752175,-0.6456493139266968,0.0,0.0,-0.022716235369443893,1500.0,377.0,1500.0,51.4594327,2.704038610114815,1417.0,26.500142999999998,-244.0,0.0,0.0,1500.0,1568.0,1.3463876247406006,-6.938719603300623e-05,-0.06780058890581131,1491.0,0.0,18.0,1000.0,0.1664622575044632,0.02323034405708313,,,,,,,,,
19.301591000000002,0.13704530894756317,0.9735346436500549,26.581343999999998,6.680417948761816e-06,0.08936085770210968,-9.722257614135742,0.0,-0.008896442130208015,0.0,0.2170153707265854,-2.7913167999999997,1.3863775730133057,5.0,0.0,0.0,-7.740218284175915e-06,1.0,-77.0,5.0,-0.8096497654914856,0.0,-0.14321544766426086,0.0,1603.0,5.42,0.023736477827122883,-0.6456493139266968,0.0,0.0,-0.02016800455749035,1500.0,376.0,1500.0,51.4594327,2.704038610114815,1417.0,26.600486,-243.0,0.0,0.0,1500.0,1568.0,1.3513679504394531,-5.025623432626443e-05,-0.06784725934267044,1491.0,0.0,18.0,1000.0,0.1664622575044632,0.023050948977470398,,,,,,,,,
19.401229999999998,0.13526667654514313,0.9735227823257446,26.661136,8.5006806906463e-06,0.08936085770210968,-9.72426700592041,0.0,-0.009055995382368565,0.0,0.21706651151180267,-2.7913167,1.3936357498168945,5.0,0.0,0.0,-6.0091915132960634e-06,1.0,-77.0,5.0,-0.7580797672271729,0.0,-0.2125963270664215,0.0,1603.0,5.4,0.023911010752322315,-0.7681000232696533,0.0,0.0,-0.02078324370086193,1500.0,374.0,1501.0,51.459431599999995,2.7038640771896154,1417.0,26.700125,-242.0,0.0,0.0,1500.0,1568.0,1.3556855916976929,-7.614269977605942e-05,-0.06780965626239777,1490.0,0.0,19.0,1001.0,0.1733981817960739,0.023181064054369926,,,,,,,,,
19.501438999999998,0.1322777271270752,0.973517119884491,26.780849999999997,6.950511230977181e-06,0.08936085770210968,-9.716394424438477,0.0,-0.008836949244141579,0.0,0.21709594130516052,-2.7913167,1.3966991901397705,5.0,0.0,0.0,-2.193095033750715e-05,1.0,-77.0,5.0,-0.7477657198905945,0.0,-0.13947921991348267,0.0,1603.0,5.4,0.023736477827122883,-0.7681000232696533,0.0,0.0,-0.019402073696255684,1500.0,375.0,1500.0,51.459431599999995,2.7038640771896154,1417.0,26.800334,-243.0,0.0,0.0,1500.0,1569.0,1.3612374067306519,-4.271534269405e-05,-0.06784442812204361,1490.0,0.0,19.0,1000.0,0.1733981817960739,0.02304595336318016,,,,,,,,,
19.601250999999998,0.13137853145599365,0.9735077023506165,26.861071,2.0747398815613376e-06,0.08918632477691024,-9.715559005737305,0.0,-0.008886529132723808,0.0,0.21713703870773315,-2.7913166,1.400119662284851,5.0,0.0,0.0,-3.352724543323639e-06,1.0,-77.0,5.0,-0.8921618461608887,0.0,-0.19778382778167725,0.0,1602.0,5.3500000000000005,0.023911010752322315,-0.9128145575523376,0.0,0.0,-0.01970919407904148,1500.0,378.0,1500.0,51.4594303,2.703689544264416,1418.0,26.900146,-243.0,0.0,0.0,1500.0,1568.0,1.3663769960403442,-8.587663970991926e-05,-0.06780761480331421,1491.0,0.0,19.0,1000.0,0.18033410608768463,0.02315974049270153,,,,,,,,,
19.701440999999996,0.12967835366725922,0.9734994173049927,26.980769,-7.967869671531875e-06,0.08918632477691024,-9.71896743774414,0.0,-0.008540467359125614,0.0,0.21718145906925201,-2.7913166,1.3982369899749756,5.0,0.0,0.0,-1.701404000464625e-05,1.0,-77.0,5.0,-0.7219806909561157,0.0,-0.15733693540096283,0.0,1602.0,5.3500000000000005,0.023736477827122883,-0.9128145575523376,0.0,0.0,-0.019185274839401245,1500.0,375.0,1500.0,51.4594303,2.703689544264416,1418.0,27.000335999999997,-243.0,0.0,0.0,1500.0,1568.0,1.3744254112243652,-2.128662635596992e-05,-0.06782428175210953,1491.0,0.0,19.0,1000.0,0.18033410608768463,0.02304411120712757,,,,,,,,,
19.801254,0.1286674588918686,0.9734858870506287,27.061657999999998,3.078536563563558e-05,0.08918632477691024,-9.724475860595703,0.0,-0.008570978417992592,0.0,0.21724222600460052,-2.7913163,1.3922770023345947,5.0,0.0,0.0,-1.0770411297528625e-05,1.0,-78.0,5.0,-0.8096497654914856,0.0,-0.19516786932945251,0.0,1602.0,5.32,0.023911010752322315,-1.0686609745025635,0.0,0.0,-0.019007304683327675,1500.0,375.0,1500.0,51.4594289,2.7035150113392166,1418.0,27.100149,-242.0,0.0,0.0,1500.0,1568.0,1.380773901939392,-9.389849410632209e-05,-0.06779316067695618,1491.0,0.0,19.0,1000.0,0.20114187896251678,0.023136530071496964,,,,,,,,,
19.901319,0.12836630642414093,0.9734818935394287,27.180747999999998,-2.4555212029492542e-06,0.08918632477691024,-9.721720695495605,0.0,-0.008689669892191887,0.0,0.21726557612419128,-2.7913163,1.3986449241638184,5.0,0.0,0.0,-1.3586500154488589e-05,1.0,-77.0,5.0,-0.6910386681556702,0.0,-0.16670140624046326,0.0,1602.0,5.32,0.02356194490192345,-1.0686609745025635,0.0,0.0,-0.018230581656098366,1500.0,375.0,1500.0,51.4594289,2.7035150113392166,1418.0,27.200214,-243.0,0.0,0.0,1500.0,1568.0,1.3907614946365356,-2.8156081258244707e-05,-0.06780959665775299,1491.0,0.0,19.0,1000.0,0.20114187896251678,0.023036569356918335,,,,,,,,,
20.001233999999997,0.1280268430709839,0.9734678864479065,27.261529,2.6443062094596833e-06,0.08918632477691024,-9.716989517211914,0.0,-0.009007836692035198,0.0,0.21732677519321442,-2.7913161,1.3979911804199219,5.0,0.0,0.0,5.949473216265479e-08,1.0,-77.0,5.0,-0.8354347944259644,0.0,-0.18140403926372528,0.0,1602.0,5.2700000000000005,0.023736477827122883,-1.19111168384552,0.0,0.0,-0.017390195280313492,1500.0,378.0,1500.0,51.4594278,2.703340478414017,1418.0,27.300129,-244.0,0.0,0.0,1500.0,1568.0,1.3984861373901367,-0.00010761491154540294,-0.06779177486896515,1491.0,0.0,19.0,1000.0,0.21501372754573822,0.02310320921242237,,,,,,,,,
20.101461999999998,0.12796811759471893,0.9734678864479065,27.300753,1.2448381382194055e-05,0.08918632477691024,-9.71740436553955,0.0,-0.008955715224146843,0.0,0.21732677519321442,-2.7913161,1.395695686340332,5.0,0.0,0.0,-5.564028589521066e-06,1.0,-77.0,5.0,-0.8251208066940308,0.0,-0.1642906367778778,0.0,1602.0,5.2700000000000005,0.023736477827122883,-1.19111168384552,0.0,0.0,-0.01698104292154312,1500.0,374.0,1500.0,51.4594278,2.703340478414017,1418.0,27.400357,-242.0,0.0,0.0,1500.0,1568.0,1.4026902914047241,-3.7312757781687054e-05,-0.06779177486896515,1491.0,0.0,19.0,1000.0,0.21501372754573822,0.02310320921242237,,,,,,,,,
20.201268,0.1287010908126831,0.9734441637992859,27.461121,-3.3032913731225688e-06,0.08918632477691024,-9.718976974487305,0.0,-0.009573341347277164,0.0,0.21743576228618622,-2.7913159,1.4004751443862915,5.0,0.0,0.0,-8.342892784813343e-06,1.0,-77.0,5.0,-0.8405918478965759,0.0,-0.1958157867193222,0.0,1602.0,5.23,0.023736477827122883,-1.2690348625183105,0.0,0.0,-0.017535371705889702,1500.0,376.0,1500.0,51.4594271,2.7031659454888177,1418.0,27.500162999999997,-243.0,0.0,0.0,1500.0,1568.0,1.4207799434661865,-9.020985182464457e-05,-0.06779725849628448,1491.0,0.0,19.0,1000.0,0.22888557612895966,0.023059029132127762,,,,,,,,,
20.301543000000002,0.1295083612203598,0.9734337329864502,27.581338,-6.704496666022754e-06,0.08918632477691024,-9.719086647033691,0.0,-0.01003260537981987,0.0,0.2174863964319229,-2.7913159,1.4076858758926392,5.0,0.0,0.0,-7.24087811957439e-06,1.0,-77.0,5.0,-0.8921618461608887,0.0,-0.16229285299777985,0.0,1603.0,5.23,0.02356194490192345,-1.2690348625183105,0.0,0.0,-0.01722332090139389,1500.0,377.0,1500.0,51.4594271,2.7029914125636183,1417.0,27.600438,-243.0,0.0,0.0,1501.0,1568.0,1.436244249343872,-3.2916656444198595e-05,-0.06779752671718597,1490.0,0.0,19.0,1001.0,0.22888557612895966,0.02302059903740883,,,,,,,,,
20.401235,0.129643976688385,0.9734255075454712,27.661472999999997,3.2739778981304198e-06,0.08918632477691024,-9.718494415283203,0.0,-0.010249467566609383,0.0,0.21752357482910156,-2.7913156999999997,1.3988136053085327,5.0,0.0,0.0,2.6731058852722562e-06,1.0,-78.0,5.0,-0.7890217900276184,0.0,-0.185274139046669,0.0,1603.0,5.22,0.023736477827122883,-1.3358261585235596,0.0,0.0,-0.016735665500164032,1500.0,377.0,1500.0,51.4594265,2.7029914125636183,1417.0,27.700129999999998,-243.0,0.0,0.0,1500.0,1568.0,1.4466378688812256,-8.625575493016135e-05,-0.06778164207935333,1491.0,0.0,19.0,1000.0,0.2427574247121811,0.023065708577632904,,,,,,,,,
20.501441999999997,0.130792498588562,0.9734203219413757,27.780727,1.9931425461968592e-07,0.08918632477691024,-9.717092514038086,0.0,-0.010776457376778126,0.0,0.2175433337688446,-2.7913156999999997,1.3983080387115479,5.0,0.0,0.0,-2.889484422116363e-06,1.0,-77.0,5.0,-0.8044927716255188,0.0,-0.1770934760570526,0.0,1602.0,5.22,0.023736477827122883,-1.3358261585235596,0.0,0.0,-0.016810597851872444,1500.0,372.0,1500.0,51.4594265,2.702816879638419,1418.0,27.800337,-242.0,0.0,0.0,1500.0,1568.0,1.4625107049942017,-3.411201493409045e-05,-0.06779363751411438,1491.0,0.0,19.0,1000.0,0.2427574247121811,0.023062510415911674,,,,,,,,,
20.601225,0.13165195286273956,0.97341388463974,27.861096,2.512277751214289e-05,0.08918632477691024,-9.709639549255371,0.0,-0.010888286866247654,0.0,0.2175697535276413,-2.7913155,1.40916907787323,5.0,0.0,0.0,-7.3846387744493745e-06,1.0,-78.0,5.0,-0.8921618461608887,0.0,-0.17970459163188934,0.0,1603.0,5.17,0.023736477827122883,-1.41374933719635,0.0,0.0,-0.01595042459666729,1500.0,377.0,1501.0,51.4594258,2.702816879638419,1417.0,27.900119999999998,-243.0,0.0,0.0,1500.0,1569.0,1.4733946323394775,-8.752538902186667e-05,-0.06779729574918747,1490.0,0.0,19.0,1000.0,0.2566292881965637,0.02307434193789959,,,,,,,,,
20.701468,0.1331709325313568,0.9734067320823669,27.980891999999997,1.7214181420704656e-05,0.08918632477691024,-9.719388961791992,0.0,-0.01146684680134058,0.0,0.21760597825050354,-2.7913155,1.3985037803649902,5.0,0.0,0.0,-1.4182043945404921e-05,1.0,-78.0,5.0,-0.923103928565979,0.0,-0.1753234565258026,0.0,1603.0,5.17,0.02356194490192345,-1.41374933719635,0.0,0.0,-0.016513783484697342,1500.0,376.0,1500.0,51.4594258,2.702816879638419,1417.0,28.000363,-244.0,0.0,0.0,1500.0,1569.0,1.4908803701400757,-3.9166144950955946e-05,-0.06778925657272339,1490.0,0.0,19.0,1000.0,0.2566292881965637,0.023059438914060593,,,,,,,,,
