time_index,velocity_z,altitude_gps,magnetometer_0,rpm_1,position_y,mode_0,global_position_latitude,servos_7,acceleration_z,time_actual,axis_rate_roll,mode_1,servos_3,tx_controls_0,tx_controls_5,altitude_baro,wind_y,position_x,tx_controls_7,servos_6,acceleration_y,time_flight,servos_2,axis_rate_yaw,magnetometer_1,servos_4,servos_0,servos_5,attitude_roll,magnetometer_2,wind_x,rpm_0,attitude_pitch,attitude_yaw,axis_rate_pitch,velocity_x,tx_controls_1,position_z,global_position_longitude,airspeed_0,tx_controls_2,tx_controls_3,gps_sat_count_0,tx_controls_4,servos_1,acceleration_x,velocity_y,tx_controls_6,mode_2,current_0,battery_1,current_1,current_2,current_3,airspeed_1,battery_0
0.0,-0.029330583289265633,5.92,170.0,-14.0,0.0,5.0,51.459438999999996,0.0,-9.679352760314941,18.759448,0.0,5.0,0.0,1000.0,1501.0,0.24468141794204712,0.0,0.0,1500.0,0.0,0.5671917200088501,18.778759,0.0,-0.00017453292519943296,-2.0,0.0,0.0,0.0,-0.007155849933176752,454.0,0.0,749.8875503540039,0.07016223593017205,2.332807078215621,0.0,-0.12471485137939453,1572.0,-0.25479087233543396,-2.7913205,0.0,1495.0,1605.0,18.0,1417.0,0.0,1.5821248292922974,-0.06389608234167099,1500.0,1.0,,,,,,,
0.09998099999999965,-0.033110715448856354,5.92,170.0,-14.0,0.0,5.0,51.459438999999996,0.0,-9.6886625289917,18.83906,0.0,5.0,0.0,1000.0,1500.0,0.4023649990558624,0.0,0.0,1500.0,0.0,0.4435797333717346,18.87874,0.0,-0.00034906585039886593,-2.0,0.0,0.0,0.0,-0.007853981633974483,454.0,0.0,642.8663558959961,0.07016223593017205,2.334726940392815,0.0,-0.11538422852754593,1572.0,-0.26050031185150146,-2.7913205,0.0,1494.0,1605.0,18.0,1418.0,0.0,1.5782501697540283,-0.054428812116384506,1500.0,1.0,,,,,,,
0.19998699999999658,-0.04054794833064079,5.89,170.0,-14.0,0.0,5.0,51.4594393,0.0,-9.685592651367188,18.959265,0.0,5.0,0.0,1000.0,1500.0,0.2555561363697052,0.0,0.0,1500.0,0.0,0.5646440982818604,18.978745999999997,0.0,-0.0005235987755982988,-2.0,0.0,0.0,0.0,-0.009075712110370514,454.0,0.0,642.8663558959961,0.07016223593017205,2.338043065971604,0.0,-0.09306533634662628,1572.0,-0.27197954058647156,-2.7913202999999998,0.0,1495.0,1604.0,18.0,1418.0,0.0,1.5754477977752686,-0.03171216696500778,1500.0,1.0,,,,,,,
0.299947999999997,-0.04542094096541405,5.89,170.0,-14.0,0.0,5.0,51.4594393,0.0,-9.687588691711426,19.039738,0.00017453292519943296,5.0,0.0,1000.0,1500.0,0.22293195128440857,0.0,0.0,1500.0,0.0,0.44757378101348877,19.078706999999998,0.0,-0.0008726646259971648,-2.0,0.0,0.0,0.0,-0.009948376736367679,454.0,0.0,642.7148971557617,0.06998770300497262,2.3399629281487977,0.0,-0.08610105514526367,1572.0,-0.2807554602622986,-2.7913202999999998,0.0,1494.0,1605.0,18.0,1418.0,0.0,1.58662748336792,-0.02375786378979683,1500.0,1.0,,,,,,,
0.3999459999999999,-0.05141093581914902,5.86,170.0,-14.0,0.0,5.0,51.459439499999995,0.0,-9.688690185546875,19.159238,0.00017453292519943296,5.0,0.0,1000.0,1500.0,0.13593411445617676,0.0,0.0,1501.0,0.0,0.5520285367965698,19.178705,0.0,-0.0012217304763960308,-2.0,0.0,0.0,0.0,-0.010821041362364843,454.0,0.0,642.7148971557617,0.06998770300497262,2.3431045208023873,0.0,-0.06730608642101288,1572.0,-0.29197654128074646,-2.7913202,0.0,1495.0,1605.0,18.0,1417.0,0.0,1.5883803367614746,-0.004020043183118105,1500.0,1.0,,,,,,,
0.49999899999999897,-0.05444936081767082,5.86,170.0,-14.0,0.0,5.0,51.459439499999995,0.0,-9.690329551696777,19.239193,0.00034906585039886593,5.0,0.0,1000.0,1501.0,0.23108799755573273,0.0,0.0,1500.0,0.0,0.48065146803855896,19.278758,0.0,-0.0015707963267948964,-2.0,0.0,0.0,0.0,-0.011519173063162575,454.0,0.0,600.1921081542969,0.06998770300497262,2.345198915904781,0.0,-0.061952363699674606,1572.0,-0.29702672362327576,-2.7913202,0.0,1495.0,1605.0,18.0,1417.0,0.0,1.578963279724121,0.00242024939507246,1500.0,1.0,,,,,,,
0.5999459999999992,-0.058140091598033905,5.82,170.0,-14.0,0.0,5.0,51.4594397,0.0,-9.683575630187988,19.359256,0.00034906585039886593,5.0,0.0,1000.0,1500.0,0.241962730884552,0.0,0.0,1500.0,0.0,0.5306552648544312,19.378705,0.0,-0.0020943951023931952,-2.0,0.0,0.0,0.0,-0.012217304763960308,454.0,0.0,642.7148971557617,0.06998770300497262,2.3483405085583704,0.0,-0.04653703421354294,1572.0,-0.30233705043792725,-2.79132,0.0,1494.0,1605.0,18.0,1418.0,0.0,1.5845595598220825,0.018051203340291977,1500.0,1.0,,,,,,,
0.700021999999997,-0.06093762442469597,5.82,170.0,-14.0,0.0,5.0,51.4594397,0.0,-9.661982536315918,19.439161,0.0005235987755982988,5.0,0.0,1000.0,1500.0,0.26643088459968567,0.0,0.0,1500.0,0.0,0.4645501971244812,19.478780999999998,0.0,-0.0024434609527920616,-2.0,0.0,0.0,0.0,-0.012915436464758038,454.0,0.0,642.4670944213867,0.06998770300497262,2.350434903660764,0.0,-0.040659237653017044,1572.0,-0.30584901571273804,-2.79132,0.0,1495.0,1604.0,18.0,1418.0,0.0,1.5775799751281738,0.02367095835506916,1500.0,1.0,,,,,,,
0.7999089999999995,-0.0640309527516365,5.84,170.0,-14.0,0.0,5.0,51.459440099999995,0.0,-9.602724075317383,19.559762,0.0006981317007977319,5.0,0.0,1000.0,1500.0,0.141371488571167,0.0,0.0,1500.0,0.0,0.5092905759811401,19.578668,0.0,-0.0029670597283903604,-2.0,0.0,0.0,0.0,-0.013613568165555772,454.0,0.0,642.7148971557617,0.07016223593017205,2.353751029239553,0.0,-0.0283419881016016,1571.0,-0.31172430515289307,-2.7913197999999997,0.0,1495.0,1605.0,18.0,1418.0,0.0,1.6103156805038452,0.03665424883365631,1500.0,1.0,,,,,,,
0.9000029999999981,-0.06398556381464005,5.84,170.0,-14.0,0.0,5.0,51.459440099999995,0.0,-9.684720993041992,19.639748,0.0008726646259971648,5.0,0.0,1000.0,1500.0,0.3697408139705658,0.0,0.0,1501.0,0.0,0.7021618485450745,19.678762,0.0,-0.003490658503988659,-2.0,0.0,0.0,0.0,-0.014137166941154071,454.0,0.0,642.7148971557617,0.07016223593017205,2.3560199572671454,0.0,-0.023144559934735298,1572.0,-0.3144458830356598,-2.7913197999999997,0.0,1495.0,1605.0,18.0,1417.0,0.0,1.6455811262130737,0.04180103540420532,1500.0,1.0,,,,,,,
0.9999829999999967,-0.081931471824646,5.84,170.0,-14.0,0.0,5.0,51.4594405,0.0,-10.310091972351074,19.759379,0.0012217304763960308,5.0,0.0,1000.0,1500.0,0.25011879205703735,0.0,0.0,1500.0,0.0,0.5396327972412109,19.778741999999998,0.0,-0.004014257279586958,-2.0,0.0,0.0,0.0,-0.014835298641951801,454.0,0.0,642.7148971557617,0.07016223593017205,2.359510615771134,-0.00017453292519943296,0.004419251810759306,1572.0,-0.31989720463752747,-2.7913194,0.0,1494.0,1605.0,18.0,1418.0,0.0,1.189452886581421,0.06239205226302147,1500.0,1.0,,,,,,,
1.0999999999999979,-0.14914117753505707,5.84,170.0,-14.0,0.0,5.0,51.4594405,0.0,-11.977167129516602,19.839209999999998,0.0013962634015954637,5.0,0.0,1000.0,1500.0,0.282742977142334,0.0,0.0,1500.0,0.0,0.6602371335029602,19.878759,0.0,-0.00471238898038469,-2.0,0.0,0.0,0.0,-0.01815142422074103,454.0,0.0,642.4670944213867,0.07278022980816354,2.361081412097929,-0.00017453292519943296,0.018627867102622986,1572.0,-0.32802894711494446,-2.7913194,0.0,1494.0,1605.0,18.0,1418.0,0.0,1.815293788909912,0.04561685025691986,1500.0,1.0,,,,,,,
1.1999569999999977,-0.4186972975730896,5.8500000000000005,170.0,-14.0,0.0,5.0,51.459440799999996,0.0,-12.332937240600586,19.959439,0.0015707963267948964,5.0,0.0,1000.0,1500.0,0.2555561363697052,0.0,0.0,1500.0,0.0,0.5084558129310608,19.978716,0.0,-0.0054105206811824215,-2.0,0.0,0.0,0.0,-0.018500490071139894,454.0,0.0,642.7148971557617,0.07801621756414652,2.365095669377516,-0.00034906585039886593,0.028663691133260727,1572.0,-0.36023014783859253,-2.7913189,0.0,1495.0,1605.0,18.0,1417.0,0.0,2.2198145389556885,0.04764622822403908,1501.0,1.0,,,,,,,
1.2999579999999966,-0.6569706201553345,5.8500000000000005,170.0,-14.0,0.0,5.0,51.459440799999996,0.0,-12.03819465637207,20.039731,0.0019198621771937625,5.0,0.0,1001.0,1500.0,0.3969276249408722,0.0,0.0,1500.0,0.0,1.289798617362976,20.078716999999997,0.0,-0.005934119456780721,-2.0,0.0,0.0,0.0,-0.015707963267948967,454.0,0.0,642.4670944213867,0.07801621756414652,2.368237262031106,-0.00034906585039886593,0.02420720085501671,1571.0,-0.40178966522216797,-2.7913189,0.0,1495.0,1605.0,18.0,1418.0,0.0,3.127655506134033,0.088536836206913,1500.0,1.0,,,,,,,
1.399989999999999,-0.9615298509597778,5.89,170.0,-14.0,0.0,5.0,51.459440799999996,0.0,-12.217352867126465,20.159565999999998,0.0020943951023931952,5.0,0.0,1000.0,1500.0,0.4431452453136444,0.0,0.0,1500.0,0.0,1.1619267463684082,20.178749,0.0,-0.0066322511575784525,-2.0,0.0,0.0,0.0,-0.009773843811168246,454.0,0.0,642.7148971557617,0.07522369076095561,2.3741713814878866,-0.0005235987755982988,-0.10777762532234192,1572.0,-0.4986262619495392,-2.7913183,0.0,1494.0,1605.0,18.0,1418.0,0.0,3.4908878803253174,0.12988868355751038,1500.0,1.0,,,,,,,
1.4999819999999993,-1.1771718263626099,5.89,170.0,-14.0,0.0,5.0,51.459440799999996,0.0,-11.588274002075195,20.239221,0.0022689280275926286,5.0,0.0,1000.0,1500.0,0.424114465713501,0.0,0.0,1500.0,0.0,0.6331852078437805,20.278741,0.0,-0.007155849933176752,-2.0,0.0,0.0,0.0,-0.003141592653589793,454.0,0.0,642.7148971557617,0.0788888821901437,2.3745204473382855,-0.0006981317007977319,-0.22893668711185455,1572.0,-0.5857998728752136,-2.7913183,0.0,1494.0,1605.0,18.0,1418.0,0.0,3.7484843730926514,0.19413036108016968,1500.0,1.0,,,,,,,
1.5999939999999988,-1.3653289079666138,6.01,170.0,-14.0,0.0,5.0,51.4594404,0.0,-9.321953773498535,20.359472,0.0024434609527920616,5.0,0.0,1000.0,1500.0,0.625296950340271,0.0,0.0,1500.0,0.0,-0.7867684364318848,20.378753,0.0,-0.007853981633974483,-2.0,0.0,0.0,0.0,0.0012217304763960308,454.0,0.0,642.7148971557617,0.09075712110370514,2.364397537676718,-0.0006981317007977319,-0.3142581582069397,1572.0,-0.7430727481842041,-2.7913175999999997,0.0,1495.0,1605.0,18.0,1417.0,0.0,2.905853271484375,0.3479885756969452,1500.0,1.0,,,,,,,
1.7000129999999984,-1.2954288721084595,6.01,170.0,-14.0,0.0,5.0,51.4594404,0.0,-6.721775054931641,20.439159999999998,0.002617993877991494,5.0,0.0,1000.0,1500.0,0.7965739369392395,0.0,0.0,1501.0,0.0,-0.6361708641052246,20.478772,0.0,-0.008377580409572781,-2.0,0.0,0.0,0.0,-0.005061454830783556,454.0,0.0,642.4670944213867,0.09983283321407564,2.3544491609403506,-0.0010471975511965976,-0.291213721036911,1572.0,-0.851830780506134,-2.7913175999999997,0.0,1495.0,1605.0,18.0,1417.0,0.0,2.439058303833008,0.4947851002216339,1500.0,1.0,,,,,,,
1.799982,-0.8996205925941467,6.15,170.0,-14.0,0.0,5.0,51.459439599999996,0.0,-6.086887836456299,20.560015999999997,0.0027925268031909274,5.0,0.0,1000.0,1500.0,0.8047299981117249,0.0,0.0,1500.0,0.0,-0.272172749042511,20.578741,0.0,-0.00890117918517108,-2.0,0.0,0.0,0.0,-0.03822271061867582,454.0,0.0,642.7148971557617,0.11082840750163994,2.337519467196006,-0.0013962634015954637,-0.30849042534828186,1572.0,-0.9906509518623352,-2.7913164,0.0,1494.0,1605.0,17.0,1418.0,0.0,2.770071029663086,0.6623150706291199,1500.0,1.0,,,,,,,
1.899918999999997,-0.6673023104667664,6.15,170.0,-14.0,0.0,5.0,51.459439599999996,0.0,-7.583030700683594,20.639653,0.0029670597283903604,5.0,0.0,1000.0,1500.0,0.8101673722267151,0.0,0.0,1500.0,0.0,0.10996802151203156,20.678677999999998,0.0,-0.009250245035569947,-2.0,0.0,0.0,0.0,-0.061086523819801536,454.0,0.0,642.7148971557617,0.12217304763960307,2.3244294978060482,-0.0022689280275926286,-0.3354485332965851,1572.0,-1.056745171546936,-2.7913164,0.0,1494.0,1605.0,17.0,1418.0,0.0,3.108336925506592,0.797633945941925,1500.0,1.0,,,,,,,
2.0000079999999976,-0.5087496638298035,6.390000000000001,170.0,-14.0,0.0,5.0,51.459438399999996,0.0,-8.40197467803955,20.759466,0.003141592653589793,5.0,0.0,1000.0,1501.0,0.867259681224823,0.0,0.0,1500.0,0.0,0.13552795350551605,20.778767,0.0,-0.009599310885968814,-2.0,0.0,0.0,0.0,-0.08674286382411818,454.0,0.0,749.8688049316406,0.14294246573833558,2.304532744333313,-0.0033161255787892262,-0.3526225984096527,1572.0,-1.126678466796875,-2.7913140999999997,0.0,1495.0,1605.0,18.0,1417.0,0.0,2.932304620742798,0.9520184993743896,1500.0,1.0,,,,,,,
2.099954999999998,-0.440711110830307,6.390000000000001,170.0,-14.0,0.0,5.0,51.459438399999996,0.0,-9.52235221862793,20.839219,0.0029670597283903604,5.0,0.0,1000.0,1500.0,0.9705696105957031,0.0,0.0,1500.0,0.0,1.5396661758422852,20.878714,0.0,-0.009948376736367679,-2.0,0.0,0.0,0.0,-0.1096066770252439,454.0,0.0,642.7148971557617,0.15795229730548685,2.2996458224277285,-0.00471238898038469,-0.3092724084854126,1572.0,-1.161818027496338,-2.7913140999999997,0.0,1495.0,1605.0,18.0,1417.0,0.0,2.845452308654785,1.0293395519256592,1500.0,1.0,,,,,,,
2.2000119999999974,-0.4586782455444336,6.53,170.0,-14.0,0.0,5.0,51.4594379,0.0,-8.654712677001953,20.9594,0.002617993877991494,5.0,0.0,1000.0,1500.0,1.0031938552856445,0.0,0.0,1500.0,0.0,3.226776123046875,20.978771,0.0,-0.010122909661567111,-2.0,0.0,0.0,0.0,-0.1494001839707146,454.0,0.0,749.8688049316406,0.1825614397586069,2.3052308760341105,-0.006457718232379019,-0.34179484844207764,1572.0,-1.2093862295150757,-2.7913110999999997,0.0,1494.0,1605.0,18.0,1418.0,0.0,1.8542379140853882,0.9275779128074646,1500.0,1.0,,,,,,,
2.299993999999998,-0.3910508453845978,6.53,170.0,-14.0,0.0,5.0,51.4594379,0.0,-7.205018997192383,21.039734,0.0019198621771937625,5.0,0.0,1000.0,1500.0,1.1282532215118408,0.0,0.0,1500.0,0.0,1.7352185249328613,21.078753,0.0,-0.010297442586766544,-2.0,0.0,0.0,0.0,-0.14748032179352083,454.0,0.0,749.8688049316406,0.20263272615654165,2.304183678482914,-0.008377580409572781,-0.37474897503852844,1572.0,-1.2384752035140991,-2.7913110999999997,0.0,1494.0,1605.0,18.0,1418.0,0.0,2.728572368621826,0.7953664660453796,1500.0,1.0,,,,,,,
2.3999939999999995,-0.15243735909461975,6.59,170.0,-14.0,0.0,5.0,51.4594374,0.0,-6.7726359367370605,21.159511,0.0010471975511965976,5.0,0.0,1000.0,1500.0,1.0956289768218994,0.0,0.0,1500.0,0.0,1.5279622077941895,21.178753,0.0,-0.010122909661567111,-2.0,0.0,0.0,0.0,-0.14154620233674012,454.0,0.0,749.962532043457,0.2345722514680379,2.297725960250535,-0.01064650843716541,-0.4354621171951294,1572.0,-1.2643436193466187,-2.7913085,0.0,1495.0,1605.0,18.0,1417.0,0.0,3.495588541030884,0.750332772731781,1500.0,1.0,,,,,,,
2.4999759999999966,-0.008813667111098766,6.59,170.0,-14.0,0.0,5.0,51.4594374,0.0,-7.902494430541992,21.239179999999998,0.0,5.0,0.0,1000.0,1500.0,1.2043763399124146,0.0,0.0,1500.0,0.0,2.647897243499756,21.278734999999998,0.0,-0.00942477796076938,-2.0,0.0,0.0,0.0,-0.16388641676226756,454.0,0.0,749.8688049316406,0.26232298657474773,2.2849850567109766,-0.012740903539558606,-0.4853106439113617,1572.0,-1.2657153606414795,-2.7913085,0.0,1495.0,1605.0,18.0,1417.0,0.0,4.431980609893799,0.7481205463409424,1501.0,1.0,,,,,,,
2.6000049999999995,-0.059884633868932724,6.640000000000001,170.0,-14.0,0.0,5.0,51.4594367,0.0,-10.60963249206543,21.359648,-0.0008726646259971648,5.0,0.0,1000.0,1500.0,1.0548487901687622,0.0,0.0,1500.0,0.0,3.210106134414673,21.378764,0.0,-0.008377580409572781,-2.0,0.0,0.0,0.0,-0.19058995431778078,454.0,0.0,749.962532043457,0.31468286413457763,2.2595032496318592,-0.014660765716752368,-0.5758102536201477,1572.0,-1.2592577934265137,-2.791306,0.0,1494.0,1605.0,18.0,1418.0,0.0,5.10623025894165,0.6821707487106323,1500.0,1.0,,,,,,,
2.699945999999997,-0.29744473099708557,6.640000000000001,170.0,-14.0,0.0,5.0,51.4594367,0.0,-12.355035781860352,21.439172,-0.0019198621771937625,5.0,0.0,1000.0,1500.0,1.1119410991668701,0.0,0.0,1500.0,0.0,2.4005932807922363,21.478704999999998,0.0,-0.006981317007977318,-2.0,0.0,0.0,0.0,-0.19285888234537343,454.0,0.0,749.962532043457,0.3413864016900908,2.2415263583363174,-0.016580627893946133,-0.572151243686676,1572.0,-1.2675189971923828,-2.791306,0.0,1494.0,1605.0,18.0,1418.0,0.0,4.873006820678711,0.6189888119697571,1500.0,1.0,,,,,,,
2.8000039999999977,-0.5028547644615173,6.65,170.0,-14.0,0.0,5.0,51.4594355,0.0,-8.291961669921875,21.560018,-0.0029670597283903604,5.0,0.0,1000.0,1500.0,1.272343397140503,0.0,0.0,1500.0,0.0,0.4312467575073242,21.578763,0.0,-0.004886921905584123,-2.0,0.0,0.0,0.0,-0.1733111947230369,454.0,0.0,749.962532043457,0.3473205211468716,2.2144737549304057,-0.01832595714594046,-0.3956032395362854,1572.0,-1.31233549118042,-2.7913031,0.0,1495.0,1604.0,18.0,1418.0,0.0,2.34555721282959,0.45289039611816406,1500.0,1.0,,,,,,,
2.9000289999999964,-0.3596726953983307,6.65,170.0,-14.0,0.0,5.0,51.4594355,0.0,-6.52329158782959,21.639734999999998,-0.004014257279586958,5.0,0.0,1000.0,1500.0,1.1880642175674438,0.0,0.0,1500.0,0.0,1.1334385871887207,21.678787999999997,0.0,-0.0022689280275926286,-2.0,0.0,0.0,0.0,-0.15707963267948966,454.0,0.0,749.8688049316406,0.35273104182805404,2.1853267564221,-0.020071286397934793,-0.2410799264907837,1572.0,-1.341948390007019,-2.7913031,0.0,1495.0,1605.0,18.0,1417.0,0.0,2.8234078884124756,0.3517002463340759,1500.0,1.0,,,,,,,
2.999913999999997,-0.05621747300028801,6.74,170.0,-14.0,0.0,5.0,51.4594343,0.0,-7.037618637084961,21.759397,-0.004886921905584123,5.0,0.0,1000.0,1500.0,1.1635960340499878,0.0,0.0,1500.0,0.0,1.2581989765167236,21.778672999999998,0.0,0.00034906585039886593,-2.0,0.0,0.0,0.0,-0.16859880574265224,454.0,0.0,749.8688049316406,0.3762929867299774,2.13610847151586,-0.021642082724729686,-0.14256209135055542,1572.0,-1.3597886562347412,-2.7913001,0.0,1494.0,1605.0,18.0,1418.0,0.0,3.9103503227233887,0.2566666603088379,1500.0,1.0,,,,,,,
3.0999729999999985,0.022478653118014336,6.74,170.0,-14.0,0.0,5.0,51.4594343,0.0,-9.066370010375977,21.839098999999997,-0.005759586531581287,5.0,0.0,1000.0,1500.0,1.0901916027069092,0.0,0.0,1500.0,0.0,2.6292338371276855,21.878732,0.0,0.003665191429188092,-2.0,0.0,0.0,0.0,-0.19896753472735357,454.0,0.0,749.8500595092773,0.4026474584350918,2.113244658314734,-0.023212879051524585,-0.13207027316093445,1572.0,-1.3542964458465576,-2.7913001,0.0,1494.0,1605.0,18.0,1418.0,0.0,5.1048994064331055,0.2111545205116272,1500.0,1.0,,,,,,,
3.1999579999999987,-0.1738005429506302,6.8100000000000005,170.0,-14.0,0.0,5.0,51.4594332,0.0,-11.392492294311523,21.959456,-0.0066322511575784525,5.0,0.0,1000.0,1500.0,1.2234070301055908,0.0,0.0,1501.0,0.0,3.251110076904297,21.978717,0.0,0.007155849933176752,-2.0,0.0,0.0,0.0,-0.24993114888558798,454.0,0.0,749.8500595092773,0.4447098934081552,2.091428042664805,-0.024260076602721184,-0.05713074654340744,1572.0,-1.3464118242263794,-2.7912969999999997,0.0,1495.0,1605.0,17.0,1417.0,0.0,6.438994407653809,0.0934164822101593,1500.0,1.0,,,,,,,
3.299971999999997,-0.4387720227241516,6.8100000000000005,170.0,-14.0,0.0,5.0,51.4594332,0.0,-9.390620231628418,22.039749999999998,-0.007853981633974483,5.0,0.0,1000.0,1500.0,1.1255345344543457,0.0,0.0,1500.0,0.0,3.4945974349975586,22.078730999999998,0.0,0.01117010721276371,-2.0,0.0,0.0,0.0,-0.2750638901143063,454.0,0.0,749.8500595092773,0.4537856055185257,2.086541120759221,-0.025132741228718343,0.017380572855472565,1572.0,-1.3612176179885864,-2.7912969999999997,0.0,1495.0,1604.0,17.0,1418.0,0.0,3.4788784980773926,-0.038645774126052856,1500.0,1.0,,,,,,,
3.399970999999997,-0.3445699214935303,6.8,170.0,-14.0,0.0,5.0,51.459432199999995,0.0,-6.420053005218506,22.15943,-0.00890117918517108,5.0,0.0,1000.0,1500.0,1.2968114614486694,0.0,0.0,1500.0,0.0,2.0424370765686035,22.178729999999998,0.0,0.015533430342749533,-2.0,0.0,0.0,0.0,-0.2741912254883092,454.0,0.0,749.8500595092773,0.44279003123096145,2.089333647562412,-0.025656340004316644,0.17420344054698944,1572.0,-1.3973113298416138,-2.7912936999999998,0.0,1494.0,1605.0,17.0,1418.0,0.0,2.674983501434326,-0.31754302978515625,1500.0,1.0,,,,,,,
3.4999949999999984,-0.11172498762607574,6.8,170.0,-14.0,0.0,5.0,51.459432199999995,0.0,-5.397451400756836,22.239183,-0.009773843811168246,5.0,0.0,1000.0,1500.0,1.310404896736145,0.0,0.0,1500.0,0.0,1.9243855476379395,22.278754,0.0,0.019024088846738195,-2.0,0.0,0.0,0.0,-0.2689552377323262,454.0,0.0,749.8500595092773,0.4431390970813603,2.0954422999443922,-0.026179938779914945,0.20523227751255035,1572.0,-1.4051849842071533,-2.7912936999999998,0.0,1494.0,1605.0,17.0,1418.0,0.0,3.924574613571167,-0.38941141963005066,1500.0,1.0,,,,,,,
3.600005999999997,0.15293270349502563,6.8,170.0,-14.0,0.0,5.0,51.4594312,0.0,-7.259013652801514,22.359655,-0.010471975511965976,5.0,0.0,1000.0,1500.0,1.130971908569336,0.0,0.0,1500.0,0.0,2.7193431854248047,22.378764999999998,0.0,0.02199114857512855,-2.0,0.0,0.0,0.0,-0.2707005669843205,454.0,0.0,749.962532043457,0.46478117980608996,2.0860175219836226,-0.026354471705114377,0.15113620460033417,1572.0,-1.3868610858917236,-2.7912908,0.0,1495.0,1605.0,18.0,1417.0,0.0,5.503100872039795,-0.40309804677963257,1500.0,1.0,,,,,,,
3.6999609999999983,0.10666923969984055,6.8,170.0,-14.0,0.0,5.0,51.4594312,0.0,-10.059768676757812,22.439183999999997,-0.010995574287564275,5.0,0.0,1000.0,1500.0,1.2125324010849,0.0,0.0,1500.0,0.0,3.505586624145508,22.47872,0.0,0.024783675378319478,-2.0,0.0,0.0,0.0,-0.28832839242946323,454.0,0.0,749.962532043457,0.4871213942316174,2.0678660977628818,-0.026354471705114377,0.1629919409751892,1572.0,-1.3652833700180054,-2.7912908,0.0,1495.0,1605.0,18.0,1417.0,0.0,5.97400426864624,-0.426815390586853,1500.0,1.0,,,,,,,
3.799979999999998,-0.2526410222053528,6.8100000000000005,170.0,-14.0,0.0,5.0,51.45943,0.0,-12.03799819946289,22.560157999999998,-0.011519173063162575,5.0,0.0,1000.0,1500.0,1.332154393196106,0.0,0.0,1500.0,0.0,3.2651190757751465,22.578739,0.0,0.027227136331111543,-2.0,0.0,0.0,0.0,-0.3232349774693498,454.0,0.0,749.962532043457,0.5078908123303499,2.0217894055102312,-0.026354471705114377,0.30549877882003784,1572.0,-1.353142499923706,-2.7912877999999997,0.0,1494.0,1605.0,18.0,1418.0,0.0,6.160312652587891,-0.5018195509910583,1500.0,1.0,,,,,,,
3.8999909999999964,-0.4069138169288635,6.8100000000000005,170.0,-14.0,0.0,5.0,51.45943,0.0,-7.9225640296936035,22.63982,-0.011868238913561441,5.0,0.0,1000.0,1500.0,1.4354642629623413,0.0,0.0,1500.0,0.0,1.899695873260498,22.678749999999997,0.0,0.02949606435870417,-2.0,0.0,0.0,0.0,-0.3249803067213442,454.0,0.0,749.962532043457,0.4991641660703783,1.9929914728523248,-0.02600540585471551,0.4478878676891327,1572.0,-1.3718442916870117,-2.7912877999999997,0.0,1494.0,1605.0,18.0,1418.0,0.0,3.525197982788086,-0.6125965714454651,1500.0,1.0,,,,,,,
3.9999939999999974,-0.18244300782680511,6.86,170.0,-14.0,0.0,5.0,51.459428599999995,0.0,-5.39719295501709,22.759676,-0.012042771838760876,5.0,0.0,1000.0,1500.0,1.30768620967865,0.0,0.0,1500.0,0.0,1.0824514627456665,22.778753,0.0,0.031939525311496235,-2.0,0.0,0.0,0.0,-0.3066543495754037,454.0,0.0,749.962532043457,0.4871213942316174,1.9308577514813268,-0.025830872929516076,0.5861444473266602,1572.0,-1.4018598794937134,-2.7912841,0.0,1495.0,1604.0,18.0,1418.0,0.0,3.85371994972229,-0.6582337617874146,1500.0,1.0,,,,,,,
4.099923999999998,0.06384717673063278,6.86,170.0,-14.0,0.0,5.0,51.459428599999995,0.0,-6.0547990798950195,22.839129999999997,-0.012391837689159739,5.0,0.0,1000.0,1500.0,1.3239983320236206,0.0,0.0,1500.0,0.0,1.6442373991012573,22.878683,0.0,0.03385938748868999,-2.0,0.0,0.0,0.0,-0.3152064629101759,454.0,0.0,749.962532043457,0.48956485518440945,1.8935077054886482,-0.02548180707911721,0.6254773736000061,1572.0,-1.403074860572815,-2.7912841,0.0,1495.0,1604.0,18.0,1418.0,0.0,4.35114049911499,-0.6018298268318176,1500.0,1.0,,,,,,,
4.199990999999997,0.17430786788463593,6.9,170.0,-14.0,0.0,5.0,51.4594276,0.0,-9.687397956848145,22.959528,-0.012566370614359171,5.0,0.0,1000.0,1500.0,1.2016576528549194,0.0,0.0,1500.0,0.0,3.2716000080108643,22.978749999999998,0.0,0.03595378259108319,-2.0,0.0,0.0,0.0,-0.3534291735288517,454.0,0.0,749.962532043457,0.5122541354603357,1.8556340607203714,-0.02495820830351891,0.7040754556655884,1572.0,-1.378265380859375,-2.7912806,0.0,1494.0,1605.0,18.0,1418.0,0.0,5.387115478515625,-0.5757066607475281,1500.0,1.0,,,,,,,
4.299979999999998,-0.0014272697735577822,6.9,170.0,-14.0,0.0,5.0,51.4594276,0.0,-10.824771881103516,23.039759999999998,-0.012915436464758038,5.0,0.0,1000.0,1500.0,1.2342817783355713,0.0,0.0,1500.0,0.0,4.667900085449219,23.078739,0.0,0.03804817769347639,-2.0,0.0,0.0,0.0,-0.37611845380477804,454.0,0.0,749.962532043457,0.5267403682518886,1.8462092827596017,-0.024434609527920616,0.7610382437705994,1572.0,-1.365054965019226,-2.7912806,0.0,1494.0,1605.0,18.0,1418.0,0.0,6.9603962898254395,-0.6201736330986023,1500.0,1.0,,,,,,,
4.399987999999997,-0.3401671350002289,6.890000000000001,170.0,-14.0,0.0,5.0,51.4594266,0.0,-9.057515144348145,23.15961,-0.013439035240356337,5.0,0.0,1000.0,1500.0,1.4327455759048462,0.0,0.0,1500.0,0.0,4.034711837768555,23.178746999999998,0.0,0.040491638646268445,-2.0,0.0,0.0,0.0,-0.3701843343479973,454.0,0.0,749.962532043457,0.5185373207675154,1.8561576594959697,-0.023736477827122883,0.7444119453430176,1572.0,-1.3776458501815796,-2.7912765,0.0,1495.0,1605.0,18.0,1417.0,0.0,3.57932186126709,-0.7903274893760681,1500.0,1.0,,,,,,,
4.499944999999997,-0.2671746015548706,6.890000000000001,170.0,-14.0,0.0,5.0,51.4594266,0.0,-5.0719499588012695,23.239179,-0.013788101090755204,5.0,0.0,1000.0,1500.0,1.2859368324279785,0.0,0.0,1500.0,0.0,2.271853446960449,23.278703999999998,0.0,0.04223696789826278,-2.0,0.0,0.0,0.0,-0.33946653951289707,454.0,0.0,749.962532043457,0.4991641660703783,1.870469359362323,-0.02303834612632515,0.7645482420921326,1572.0,-1.397973895072937,-2.7912765,0.0,1495.0,1604.0,18.0,1418.0,0.0,3.86842942237854,-0.9061366319656372,1500.0,1.0,,,,,,,
4.599990999999999,0.14051231741905212,6.98,170.0,-14.0,0.0,5.0,51.459425499999995,0.0,-4.824239730834961,23.359696,-0.014137166941154071,5.0,0.0,1001.0,1500.0,1.3729345798492432,0.0,0.0,1500.0,0.0,1.9672081470489502,23.37875,0.0,0.04345869837465881,-2.0,0.0,0.0,0.0,-0.3127630019573839,454.0,0.0,749.962532043457,0.4853760649796231,1.878148808071098,-0.02234021442552742,0.6927942037582397,1571.0,-1.4017198085784912,-2.7912725,0.0,1495.0,1605.0,18.0,1418.0,0.0,4.176078796386719,-0.8065410256385803,1500.0,1.0,,,,,,,
4.700030999999999,0.30278441309928894,6.98,170.0,-14.0,0.0,5.0,51.459425499999995,0.0,-8.301199913024902,23.43923,-0.014311699866353503,5.0,0.0,1000.0,1500.0,1.169033408164978,0.0,0.0,1500.0,0.0,2.8430373668670654,23.47879,0.0,0.0439822971502571,-2.0,0.0,0.0,0.0,-0.3131120678077827,454.0,0.0,749.8500595092773,0.49480084294039245,1.866455102082736,-0.021642082724729686,0.6288831830024719,1572.0,-1.3788630962371826,-2.7912725,0.0,1494.0,1605.0,18.0,1418.0,0.0,6.1097822189331055,-0.7259089946746826,1500.0,1.0,,,,,,,
4.7999469999999995,0.0917365625500679,7.0200000000000005,170.0,-14.0,0.0,5.0,51.4594239,0.0,-10.268501281738281,23.559953,-0.014311699866353503,5.0,0.0,1000.0,1500.0,1.166314721107483,0.0,0.0,1500.0,0.0,3.873452663421631,23.578706,0.0,0.0439822971502571,-2.0,0.0,0.0,0.0,-0.3159045946109737,454.0,0.0,749.962532043457,0.5153957281139255,1.8407987620784194,-0.02076941809873252,0.5698041319847107,1572.0,-1.342059850692749,-2.7912686,0.0,1495.0,1604.0,18.0,1418.0,0.0,7.101164817810059,-0.7004904747009277,1500.0,1.0,,,,,,,
4.900013999999999,-0.21481795608997345,7.0200000000000005,170.0,-14.0,0.0,5.0,51.4594239,0.0,-10.24985408782959,23.639727999999998,-0.014311699866353503,5.0,0.0,1000.0,1500.0,1.250593900680542,0.0,0.0,1500.0,0.0,2.0805845260620117,23.678773,0.0,0.044156830075456545,-2.0,0.0,0.0,0.0,-0.30839967882739805,454.0,0.0,749.8500595092773,0.5152211951887261,1.8142697574481057,-0.019896753472735357,0.6550049185752869,1572.0,-1.3363713026046753,-2.7912686,0.0,1495.0,1604.0,18.0,1418.0,0.0,5.395448684692383,-0.6918922662734985,1500.0,1.0,,,,,,,
5.000310999999996,-0.28293490409851074,7.03,170.0,-14.0,0.0,5.0,51.4594221,0.0,-7.138564109802246,23.759759,-0.014486232791552936,5.0,0.0,1000.0,1500.0,1.449057698249817,0.0,0.0,1500.0,0.0,1.7835994958877563,23.779069999999997,0.0,0.044331363000655974,-2.0,0.0,0.0,0.0,-0.28187067419708417,454.0,0.0,749.962532043457,0.4839798015780276,1.7723818554002415,-0.019198621771937627,0.7520560622215271,1572.0,-1.3547859191894531,-2.7912641,0.0,1494.0,1605.0,18.0,1418.0,0.0,3.7121002674102783,-0.7594599723815918,1500.0,1.0,,,,,,,
5.099967999999997,-0.048724912106990814,7.03,170.0,-14.0,0.0,5.0,51.4594221,0.0,-5.240867614746094,23.839226,-0.014486232791552936,5.0,0.0,1000.0,1501.0,1.272343397140503,0.0,0.0,1500.0,0.0,1.150800108909607,23.878726999999998,0.0,0.04450589592585541,-2.0,0.0,0.0,0.0,-0.2631956512007449,454.0,0.0,749.8500595092773,0.4654793115068877,1.7388715337619505,-0.01832595714594046,0.7815366983413696,1572.0,-1.3618985414505005,-2.7912641,0.0,1495.0,1605.0,18.0,1417.0,0.0,3.2953860759735107,-0.7340040802955627,1500.0,1.0,,,,,,,
5.199992999999999,0.24773304164409637,7.140000000000001,170.0,-14.0,0.0,5.0,51.4594205,0.0,-8.400508880615234,23.959379,-0.014486232791552936,5.0,0.0,1000.0,1500.0,1.2451565265655518,0.0,0.0,1500.0,0.0,2.6301681995391846,23.978752,0.0,0.044331363000655974,-2.0,0.0,0.0,0.0,-0.27960174616949157,454.0,0.0,749.962532043457,0.46478117980608996,1.7133897266828333,-0.017627825445142728,0.7505853176116943,1572.0,-1.3372268676757812,-2.79126,0.0,1494.0,1605.0,17.0,1418.0,0.0,5.048403263092041,-0.664868175983429,1500.0,1.0,,,,,,,
5.300001999999999,0.14135532081127167,7.140000000000001,170.0,-14.0,0.0,5.0,51.4594205,0.0,-10.166417121887207,24.039725999999998,-0.014486232791552936,5.0,0.0,1000.0,1500.0,1.0956289768218994,0.0,0.0,1500.0,0.0,3.7500810623168945,24.078761,0.0,0.04450589592585541,-2.0,0.0,0.0,0.0,-0.29129545215785363,454.0,0.0,749.8500595092773,0.47246062851486503,1.7123425291316368,-0.016929693744344994,0.7362451553344727,1572.0,-1.3136273622512817,-2.79126,0.0,1495.0,1604.0,17.0,1418.0,0.0,6.371939659118652,-0.6744345426559448,1500.0,1.0,,,,,,,
5.400006999999999,-0.25666993856430054,7.13,170.0,-14.0,0.0,5.0,51.459419,0.0,-10.65289306640625,24.159651,-0.014660765716752368,5.0,0.0,1001.0,1500.0,1.2614686489105225,0.0,0.0,1500.0,0.0,4.249562740325928,24.178766,0.0,0.04485496177625427,-2.0,0.0,0.0,0.0,-0.30264009229581673,454.0,0.0,749.8500595092773,0.4686209041604775,1.7308430192027766,-0.016231562043547264,0.6913166642189026,1571.0,-1.3040982484817505,-2.7912559,0.0,1495.0,1605.0,17.0,1418.0,0.0,4.730980396270752,-0.6806463003158569,1500.0,1.0,,,,,,,
5.499973999999998,-0.31782039999961853,7.13,170.0,-14.0,0.0,5.0,51.459419,0.0,-7.206229209899902,24.239099,-0.014660765716752368,5.0,0.0,1000.0,1500.0,1.451776385307312,0.0,0.0,1500.0,0.0,2.107426404953003,24.278733,0.0,0.045029494701453704,-2.0,0.0,0.0,0.0,-0.29635690698863715,454.0,0.0,749.8500595092773,0.4471533543609473,1.7530087007031045,-0.015533430342749533,0.6546227335929871,1572.0,-1.3184276819229126,-2.7912559,0.0,1494.0,1605.0,17.0,1418.0,0.0,2.7163617610931396,-0.8308047652244568,1500.0,1.0,,,,,,,
5.59995,0.014252744615077972,7.24,170.0,-14.0,0.0,5.0,51.4594175,0.0,-4.577290058135986,24.359427999999998,-0.014660765716752368,5.0,0.0,1000.0,1500.0,1.3430291414260864,0.0,0.0,1500.0,0.0,1.7572579383850098,24.378709,0.0,0.045029494701453704,-2.0,0.0,0.0,0.0,-0.2923426497090502,454.0,0.0,749.8500595092773,0.42446407408502096,1.7905332796209827,-0.015009831567151233,0.6024446487426758,1572.0,-1.3302607536315918,-2.7912516,0.0,1495.0,1604.0,17.0,1418.0,0.0,3.784315586090088,-0.818422794342041,1500.0,1.0,,,,,,,
5.6999419999999965,0.2687833607196808,7.24,170.0,-14.0,0.0,5.0,51.4594175,0.0,-6.746367454528809,24.439162,-0.014660765716752368,5.0,0.0,1000.0,1500.0,1.169033408164978,0.0,0.0,1500.0,0.0,2.638787031173706,24.478700999999997,0.0,0.044331363000655974,-2.0,0.0,0.0,0.0,-0.29792770331543206,454.0,0.0,749.8500595092773,0.4293509959906051,1.8036232490109403,-0.014137166941154071,0.5314244031906128,1572.0,-1.3148633241653442,-2.7912516,0.0,1494.0,1605.0,17.0,1418.0,0.0,5.234586238861084,-0.7114361524581909,1500.0,1.0,,,,,,,
5.800052999999998,0.21308770775794983,7.32,170.0,-14.0,0.0,5.0,51.459415899999996,0.0,-10.222417831420898,24.559836999999998,-0.014311699866353503,5.0,0.0,1000.0,1500.0,1.3511852025985718,0.0,0.0,1501.0,0.0,4.306551456451416,24.578812,0.0,0.04328416544945937,-2.0,0.0,0.0,0.0,-0.31119220563058897,454.0,0.0,749.8500595092773,0.4590215932745087,1.80065618928255,-0.013439035240356337,0.43479669094085693,1572.0,-1.271247386932373,-2.7912475999999997,0.0,1495.0,1605.0,17.0,1417.0,0.0,6.479208946228027,-0.6172107458114624,1500.0,1.0,,,,,,,
5.900027999999999,-0.07926932722330093,7.32,170.0,-14.0,0.0,5.0,51.459415899999996,0.0,-11.406414985656738,24.639765999999998,-0.013962634015954637,5.0,0.0,1000.0,1501.0,1.2587499618530273,0.0,0.0,1500.0,0.0,2.0948026180267334,24.678787,0.0,0.04223696789826278,-2.0,0.0,0.0,0.0,-0.3183480555637657,454.0,0.0,749.55029296875,0.4761258199440531,1.7826792979870083,-0.012740903539558606,0.45999619364738464,1572.0,-1.257344126701355,-2.7912475999999997,0.0,1495.0,1605.0,17.0,1417.0,0.0,6.564303874969482,-0.5631630420684814,1500.0,1.0,,,,,,,
5.999966999999998,-0.27068838477134705,7.3100000000000005,170.0,-14.0,0.0,5.0,51.459413999999995,0.0,-8.237106323242188,24.75965,-0.013788101090755204,5.0,0.0,1000.0,1500.0,1.4952753782272339,0.0,0.0,1500.0,0.0,1.9450762271881104,24.778726,0.0,0.041015237421866746,-2.0,0.0,0.0,0.0,-0.31956978604016173,454.0,0.0,749.55029296875,0.4719370297392667,1.7654005383922644,-0.012042771838760876,0.655765175819397,1572.0,-1.2735209465026855,-2.7912437999999997,0.0,1494.0,1605.0,17.0,1418.0,0.0,3.8474996089935303,-0.5758799910545349,1500.0,1.0,,,,,,,
6.099996999999998,-0.11013283580541611,7.3100000000000005,170.0,-14.0,0.0,5.0,51.459413999999995,0.0,-4.741643905639648,24.839185,-0.013439035240356337,5.0,0.0,1000.0,1500.0,1.2859368324279785,0.0,0.0,1500.0,0.0,0.6923913955688477,24.878756,0.0,0.04014257279586959,-2.0,0.0,0.0,0.0,-0.3012438288942213,454.0,0.0,749.5315475463867,0.46443211395569106,1.749168976348717,-0.011344640137963142,0.6675430536270142,1572.0,-1.28592848777771,-2.7912437999999997,0.0,1495.0,1604.0,17.0,1418.0,0.0,3.4250590801239014,-0.5848984718322754,1500.0,1.0,,,,,,,
6.200001999999998,0.3129373788833618,7.390000000000001,170.0,-14.0,0.0,5.0,51.4594124,0.0,-6.49692440032959,24.959509999999998,-0.013089969389957472,5.0,0.0,1001.0,1500.0,1.2206883430480957,0.0,0.0,1500.0,0.0,1.4347926378250122,24.978761,0.0,0.039095375244672985,-2.0,0.0,0.0,0.0,-0.3050835532486088,454.0,0.0,749.55029296875,0.46687557490848314,1.735031809407563,-0.010821041362364843,0.6988945007324219,1571.0,-1.2676557302474976,-2.7912399,0.0,1495.0,1605.0,17.0,1418.0,0.0,4.957963466644287,-0.450525164604187,1500.0,1.0,,,,,,,
6.299933999999997,0.3295767307281494,7.390000000000001,170.0,-14.0,0.0,5.0,51.4594124,0.0,-10.136367797851562,25.039785,-0.012740903539558606,5.0,0.0,1000.0,1500.0,1.2043763399124146,0.0,0.0,1500.0,0.0,3.0962648391723633,25.078692999999998,0.0,0.03787364476827695,-2.0,0.0,0.0,0.0,-0.3337069529813158,454.0,0.0,749.55029296875,0.47472955654245763,1.739918731313147,-0.010122909661567111,0.7265599370002747,1572.0,-1.235117793083191,-2.7912399,0.0,1495.0,1605.0,17.0,1417.0,0.0,5.957066535949707,-0.3829094171524048,1500.0,1.0,,,,,,,
6.400001,0.030806194990873337,7.42,170.0,-14.0,0.0,5.0,51.459410999999996,0.0,-10.265810012817383,25.159677,-0.012391837689159739,5.0,0.0,1000.0,1500.0,1.30768620967865,0.0,0.0,1500.0,0.0,4.9005889892578125,25.17876,0.0,0.03682644721708035,-2.0,0.0,0.0,0.0,-0.3754203221039803,454.0,0.0,749.6814041137695,0.4731587602156627,1.7666222688686604,-0.009599310885968814,0.7488081455230713,1572.0,-1.1996463537216187,-2.7912358,0.0,1494.0,1605.0,17.0,1418.0,0.0,6.789456844329834,-0.35522738099098206,1500.0,1.0,,,,,,,
6.500017,-0.17334900796413422,7.42,170.0,-14.0,0.0,5.0,51.459410999999996,0.0,-8.65049934387207,25.239182,-0.012217304763960308,5.0,0.0,1000.0,1500.0,1.4436203241348267,0.0,0.0,1500.0,0.0,2.8068277835845947,25.278776,0.0,0.03560471674068432,-2.0,0.0,0.0,0.0,-0.37891098060796896,454.0,0.0,749.55029296875,0.4562290664713178,1.794722069825769,-0.00890117918517108,0.6722527146339417,1572.0,-1.1989414691925049,-2.7912358,0.0,1494.0,1605.0,17.0,1418.0,0.0,3.69348406791687,-0.4324116110801697,1500.0,1.0,,,,,,,
6.599988999999997,0.003643978852778673,7.41,170.0,-14.0,0.0,5.0,51.459409699999995,0.0,-4.732977867126465,25.359436,-0.011868238913561441,5.0,0.0,1000.0,1500.0,1.4844006299972534,0.0,0.0,1501.0,0.0,1.8321975469589233,25.378747999999998,0.0,0.03438298626428829,-2.0,0.0,0.0,0.0,-0.346273323595675,454.0,0.0,749.6814041137695,0.41608649367544814,1.842718624255613,-0.008377580409572781,0.7015050053596497,1572.0,-1.2082366943359375,-2.7912315,0.0,1495.0,1605.0,17.0,1417.0,0.0,3.402998208999634,-0.45479869842529297,1500.0,1.0,,,,,,,
6.6999369999999985,0.33601686358451843,7.41,170.0,-14.0,0.0,5.0,51.459409699999995,0.0,-5.620054244995117,25.439068,-0.011519173063162575,5.0,0.0,1000.0,1501.0,1.4191522598266602,0.0,0.0,1500.0,0.0,2.4067578315734863,25.478696,0.0,0.032637657012293965,-2.0,0.0,0.0,0.0,-0.33056536032772604,454.0,0.0,749.6814041137695,0.4043927876870862,1.8629644435787476,-0.00767944870877505,0.6577310562133789,1572.0,-1.195365071296692,-2.7912315,0.0,1495.0,1605.0,17.0,1417.0,0.0,4.4869866371154785,-0.3879801034927368,1500.0,1.0,,,,,,,
6.799986999999998,0.44055670499801636,7.44,197.0,-14.0,0.0,5.0,51.459408499999995,0.0,-9.753664016723633,25.560412,-0.010995574287564275,5.0,0.0,1000.0,1500.0,1.1799081563949585,0.0,0.0,1500.0,0.0,3.0878615379333496,25.578746,0.0,0.030892327760299633,-3.0,0.0,0.0,0.0,-0.32375857624494814,444.0,0.0,749.6814041137695,0.41661009245104647,1.862789910653548,-0.006981317007977318,0.5776804685592651,1572.0,-1.145575761795044,-2.7912274999999998,0.0,1494.0,1605.0,17.0,1418.0,0.0,6.275056838989258,-0.22014406323432922,1500.0,1.0,,,,,,,
6.899956999999997,0.20952221751213074,7.44,197.0,-14.0,0.0,5.0,51.459408499999995,0.0,-13.537656784057617,25.639751999999998,-0.010471975511965976,5.0,0.0,1000.0,1500.0,1.2560312747955322,0.0,0.0,1500.0,0.0,3.234808921813965,25.678715999999998,0.0,0.0291469985083053,-3.0,0.0,0.0,0.0,-0.3255039054969425,444.0,0.0,749.55029296875,0.42743113381341136,1.850398072964388,-0.006457718232379019,0.576600968837738,1572.0,-1.118355393409729,-2.7912274999999998,0.0,1494.0,1605.0,17.0,1418.0,0.0,7.0269293785095215,-0.1776263564825058,1500.0,1.0,,,,,,,
6.999998999999999,-0.21740032732486725,7.43,197.0,-14.0,0.2774372398853302,5.0,51.459407,0.0,-8.91208553314209,25.759401999999998,-0.010122909661567111,5.0,0.0,1000.0,1500.0,1.4327455759048462,0.0,-0.16697826981544495,1500.0,0.0,2.1453697681427,25.778758,0.0,0.027401669256310976,-3.0,0.0,0.0,0.0,-0.3043854215478111,444.0,0.0,749.55029296875,0.40858157789187255,1.8352137084720377,-0.005934119456780721,0.6987993121147156,1572.0,-1.1209197044372559,-2.7912235,0.0,1495.0,1605.0,17.0,1417.0,0.0,3.1116015911102295,-0.2747460901737213,1500.0,1.0,,,,,,,
7.100032999999996,-0.11687242984771729,7.43,197.0,-14.0,0.2774372398853302,5.0,51.459407,0.0,-5.6326904296875,25.839046,-0.009599310885968814,5.0,0.0,1000.0,1500.0,1.533336877822876,0.0,-0.16697826981544495,1500.0,0.0,0.8274549841880798,25.878791999999997,0.0,0.02600540585471551,-3.0,0.0,0.0,0.0,-0.27314402793711257,444.0,0.0,749.55029296875,0.3925245487735248,1.8076375062905272,-0.005235987755982988,0.7216376662254333,1572.0,-1.1349868774414062,-2.7912235,0.0,1495.0,1605.0,17.0,1417.0,0.0,3.519883394241333,-0.30825743079185486,1500.0,1.0,,,,,,,
7.199972999999996,0.2879432141780853,7.5600000000000005,197.0,-14.0,0.5618104338645935,5.0,51.459405499999995,0.0,-5.92272424697876,25.959685999999998,-0.009250245035569947,5.0,0.0,1000.0,1500.0,1.2179696559906006,0.0,-0.3339565396308899,1500.0,0.0,1.8400195837020874,25.978731999999997,0.0,0.024609142453120045,-3.0,0.0,0.0,0.0,-0.2776818839922978,444.0,0.0,750.1875839233398,0.3893829561199349,1.7687166639710536,-0.00471238898038469,0.7069225907325745,1572.0,-1.1326082944869995,-2.7912193999999997,0.0,1494.0,1605.0,17.0,1418.0,0.0,3.6691501140594482,-0.22231286764144897,1500.0,1.0,,,,,,,
7.300000999999998,0.39705580472946167,7.5600000000000005,197.0,-14.0,0.5618104338645935,5.0,51.459405499999995,0.0,-9.682670593261719,26.039686999999997,-0.009075712110370514,5.0,0.0,1000.0,1500.0,1.2098137140274048,0.0,-0.3339565396308899,1500.0,0.0,3.663835048675537,26.07876,0.0,0.023387411976724018,-3.0,0.0,0.0,0.0,-0.30857421175259747,444.0,0.0,749.55029296875,0.40735984741547654,1.7582446884590877,-0.004363323129985824,0.683308482170105,1572.0,-1.1094897985458374,-2.7912193999999997,0.0,1494.0,1605.0,17.0,1418.0,0.0,5.101907253265381,-0.192832812666893,1500.0,1.0,,,,,,,
7.399983999999996,0.14250878989696503,7.58,197.0,-14.0,0.832311749458313,5.0,51.459404299999996,0.0,-10.490241050720215,26.159256,-0.00890117918517108,5.0,0.0,1000.0,1500.0,1.2179696559906006,0.0,-0.4675391614437103,1501.0,0.0,4.602880477905273,26.178742999999997,0.0,0.022514747350726852,-3.0,0.0,0.0,0.0,-0.3431317309420852,444.0,0.0,749.55029296875,0.4379031093253773,1.7734290529514383,-0.003839724354387525,0.6081587672233582,1572.0,-1.0794203281402588,-2.7912155,0.0,1495.0,1605.0,17.0,1417.0,0.0,7.28754186630249,-0.22118185460567474,1500.0,1.0,,,,,,,
7.499969999999998,-0.13633078336715698,7.58,197.0,-14.0,0.832311749458313,5.0,51.459404299999996,0.0,-8.840095520019531,26.239106999999997,-0.008726646259971648,5.0,0.0,1000.0,1500.0,1.4708071947097778,0.0,-0.4675391614437103,1500.0,0.0,4.4454169273376465,26.278729,0.0,0.02181661564992912,-3.0,0.0,0.0,0.0,-0.34766958699727046,444.0,0.0,749.55029296875,0.4422664324553631,1.8065903087393307,-0.003490658503988659,0.49481478333473206,1572.0,-1.0822362899780273,-2.7912155,0.0,1495.0,1604.0,17.0,1418.0,0.0,3.809521436691284,-0.23885130882263184,1500.0,1.0,,,,,,,
7.599992999999998,-0.047710176557302475,7.59,197.0,-14.0,1.123620867729187,5.0,51.459402999999995,0.0,-5.4745869636535645,26.359669999999998,-0.008552113334772215,5.0,0.0,1000.0,1500.0,1.4544950723648071,0.0,-0.6122536659240723,1500.0,0.0,2.469743490219116,26.378752,0.0,0.02111848394913139,-3.0,0.0,0.0,0.0,-0.3104940739297912,444.0,0.0,749.55029296875,0.4232423436086249,1.873610952015913,-0.003141592653589793,0.4401760399341583,1572.0,-1.1075553894042969,-2.7912113,0.0,1494.0,1605.0,17.0,1418.0,0.0,3.206389904022217,-0.39879658818244934,1500.0,1.0,,,,,,,
7.699957999999999,0.24381455779075623,7.59,197.0,-14.0,1.123620867729187,5.0,51.459402999999995,0.0,-5.0357985496521,26.439225999999998,-0.008377580409572781,5.0,0.0,1000.0,1500.0,1.2315630912780762,0.0,-0.6122536659240723,1500.0,0.0,2.009876012802124,26.478717,0.0,0.020071286397934793,-3.0,0.0,0.0,0.0,-0.28623399732707,444.0,0.0,749.5315475463867,0.41661009245104647,1.9149752552881785,-0.002617993877991494,0.3571978807449341,1572.0,-1.1111489534378052,-2.7912113,0.0,1494.0,1605.0,17.0,1418.0,0.0,4.164546489715576,-0.3846298158168793,1500.0,1.0,,,,,,,
7.799961999999997,0.4229731261730194,7.63,197.0,-14.0,1.3733144998550415,5.0,51.4594016,0.0,-8.424354553222656,26.559783,-0.008028514559173916,5.0,0.0,1000.0,1500.0,1.3239983320236206,0.0,-0.7681000232696533,1500.0,0.0,2.761247396469116,26.578720999999998,0.0,0.019024088846738195,-3.0,0.0,0.0,0.0,-0.2698279023583234,444.0,0.0,749.5315475463867,0.4330161874197932,1.9442967867216832,-0.0022689280275926286,0.20267044007778168,1572.0,-1.0804200172424316,-2.7912076999999997,0.0,1495.0,1605.0,17.0,1417.0,0.0,6.612969875335693,-0.256523996591568,1500.0,1.0,,,,,,,
7.900022999999997,0.26037588715553284,7.63,197.0,-14.0,1.3733144998550415,5.0,51.4594016,0.0,-11.523152351379395,26.639726,-0.00767944870877505,5.0,0.0,1000.0,1500.0,1.2968114614486694,0.0,-0.7681000232696533,1500.0,0.0,2.927180528640747,26.678781999999998,0.0,0.017976891295541596,-3.0,0.0,0.0,0.0,-0.27174776453551713,444.0,0.0,749.5129089355469,0.45151667749093305,1.9448203854972814,-0.0019198621771937625,0.14354686439037323,1572.0,-1.0612722635269165,-2.7912076999999997,0.0,1495.0,1605.0,17.0,1417.0,0.0,7.449124336242676,-0.2070261538028717,1500.0,1.0,,,,,,,
8.000011999999998,-0.2083699256181717,7.640000000000001,197.0,-14.0,1.636879801750183,5.0,51.459400099999996,0.0,-10.22536563873291,26.7594,-0.007504915783575617,5.0,0.0,1000.0,1500.0,1.4789632558822632,0.0,-0.9350783228874207,1500.0,0.0,2.3175973892211914,26.778771,0.0,0.01710422666954443,-3.0,0.0,0.0,0.0,-0.2658136450787364,444.0,0.0,749.5315475463867,0.45413467136892455,1.9429005233200878,-0.0015707963267948964,0.2092665582895279,1572.0,-1.0725867748260498,-2.7912038999999997,0.0,1494.0,1605.0,17.0,1418.0,0.0,4.1627421379089355,-0.24944503605365753,1500.0,1.0,,,,,,,
8.099970999999996,-0.20137134194374084,7.640000000000001,197.0,-14.0,1.636879801750183,5.0,51.459400099999996,0.0,-6.109560966491699,26.839225,-0.007155849933176752,5.0,0.0,1000.0,1500.0,1.449057698249817,0.0,-0.9350783228874207,1500.0,0.0,1.6374573707580566,26.878729999999997,0.0,0.016231562043547264,-3.0,0.0,0.0,0.0,-0.2441715623540067,444.0,0.0,749.5315475463867,0.4406956361285682,1.9364428050877087,-0.0012217304763960308,0.2776123881340027,1572.0,-1.1020724773406982,-2.7912038999999997,0.0,1494.0,1605.0,17.0,1418.0,0.0,3.730538845062256,-0.34452715516090393,1500.0,1.0,,,,,,,
8.200008999999998,0.1664067506790161,7.69,197.0,-14.0,1.8796374797821045,5.0,51.4593986,0.0,-5.086299419403076,26.959405999999998,-0.006981317007977318,5.0,0.0,1000.0,1500.0,1.3158422708511353,0.0,-1.102056622505188,1500.0,0.0,1.1569353342056274,26.978768,0.0,0.015533430342749533,-3.0,0.0,0.0,0.0,-0.24277529895241123,444.0,0.0,750.300163269043,0.4284783313646079,1.912357261410187,-0.0008726646259971648,0.26349738240242004,1572.0,-1.129276156425476,-2.7912003999999997,0.0,1495.0,1604.0,17.0,1418.0,0.0,3.881800651550293,-0.2962348461151123,1500.0,1.0,,,,,,,
8.299986999999998,0.36687371134757996,7.69,197.0,-14.0,1.8796374797821045,5.0,51.4593986,0.0,-7.67707633972168,27.039721999999998,-0.0066322511575784525,5.0,0.0,1000.0,1500.0,1.3403104543685913,0.0,-1.102056622505188,1500.0,0.0,2.6300771236419678,27.078746,0.0,0.014835298641951801,-3.0,0.0,0.0,0.0,-0.27960174616949157,444.0,0.0,749.5877838134766,0.4356341812977847,1.9079939382802011,-0.0005235987755982988,0.23855605721473694,1572.0,-1.1221580505371094,-2.7912003999999997,0.0,1495.0,1604.0,17.0,1418.0,0.0,5.271425247192383,-0.24043139815330505,1500.0,1.0,,,,,,,
8.399989999999999,0.2322009950876236,7.73,197.0,-14.0,2.1154592037200928,5.0,51.4593974,0.0,-9.816316604614258,27.159285999999998,-0.006457718232379019,5.0,0.0,1000.0,1500.0,1.2478752136230469,0.0,-1.235639214515686,1500.0,0.0,3.6667768955230713,27.178749,0.0,0.014137166941154071,-3.0,0.0,0.0,0.0,-0.3248057737961447,444.0,0.0,749.5877838134766,0.45570546769571946,1.932079481957723,-0.00034906585039886593,0.22326596081256866,1572.0,-1.1018611192703247,-2.791197,0.0,1494.0,1605.0,17.0,1418.0,0.0,7.197474479675293,-0.2062733769416809,1500.0,1.0,,,,,,,
8.499942999999998,-0.07218479365110397,7.73,197.0,-14.0,2.1154592037200928,5.0,51.4593974,0.0,-9.667232513427734,27.239176999999998,-0.006108652381980154,5.0,0.0,1000.0,1500.0,1.4898380041122437,0.0,-1.235639214515686,1500.0,0.0,4.9850850105285645,27.278702,0.0,0.013439035240356337,-3.0,0.0,0.0,0.0,-0.33126349202852373,444.0,0.0,749.5315475463867,0.4485496177625427,1.961575546316427,0.0,0.19042851030826569,1572.0,-1.1062679290771484,-2.791197,0.0,1494.0,1605.0,17.0,1418.0,0.0,5.258416652679443,-0.13757038116455078,1500.0,1.0,,,,,,,
8.600012,-0.13072939217090607,7.72,197.0,-14.0,2.372088670730591,5.0,51.4593962,0.0,-7.065190315246582,27.359284,-0.005934119456780721,5.0,0.0,1000.0,1500.0,1.4354642629623413,0.0,-1.369221806526184,1500.0,0.0,2.1534061431884766,27.378771,0.0,0.012915436464758038,-3.0,0.0,0.0,0.0,-0.29932396671702755,444.0,0.0,749.5315475463867,0.39269908169872414,2.0130627592502597,0.0,0.15129749476909637,1572.0,-1.145165205001831,-2.7911932999999998,0.0,1495.0,1605.0,17.0,1417.0,0.0,2.4576497077941895,-0.3030655086040497,1500.0,1.0,,,,,,,
8.699988999999999,0.0744931697845459,7.72,197.0,-14.0,2.372088670730591,5.0,51.4593962,0.0,-5.172965049743652,27.439211999999998,-0.005585053606381855,5.0,0.0,1000.0,1500.0,1.4245896339416504,0.0,-1.369221806526184,1500.0,0.0,1.4207919836044312,27.478748,0.0,0.012042771838760876,-3.0,0.0,0.0,0.0,-0.28431413514987625,444.0,0.0,749.5315475463867,0.36163222101322506,2.044129619935759,0.00034906585039886593,0.16825437545776367,1572.0,-1.163612723350525,-2.7911932999999998,0.0,1494.0,1605.0,17.0,1418.0,0.0,3.5546395778656006,-0.3303360044956207,1500.0,1.0,,,,,,,
8.800050999999996,0.38238734006881714,7.76,197.0,-14.0,2.6148462295532227,5.0,51.459395,0.0,-7.084456443786621,27.559991,-0.005235987755982988,5.0,0.0,1000.0,1501.0,1.3294357061386108,0.0,-1.5028043985366821,1500.0,0.0,2.8400492668151855,27.578809999999997,0.0,0.01117010721276371,-3.0,0.0,0.0,0.0,-0.28483773392547457,444.0,0.0,749.5315475463867,0.34889131747366653,2.0614083795305027,0.0006981317007977319,0.08596383035182953,1572.0,-1.1574127674102783,-2.7911897999999997,0.0,1495.0,1605.0,17.0,1417.0,0.0,5.387883186340332,-0.21267101168632507,1500.0,1.0,,,,,,,
8.899940999999998,0.32650238275527954,7.76,197.0,-14.0,2.6148462295532227,5.0,51.459395,0.0,-10.426652908325195,27.639764999999997,-0.004886921905584123,5.0,0.0,1000.0,1500.0,1.3593411445617676,0.0,-1.5028043985366821,1500.0,0.0,3.718881607055664,27.6787,0.0,0.010297442586766544,-3.0,0.0,0.0,0.0,-0.2958333082130388,444.0,0.0,749.5129089355469,0.3586651612848347,2.0544270625225254,0.0008726646259971648,0.013855177909135818,1571.0,-1.1424717903137207,-2.7911897999999997,0.0,1495.0,1605.0,17.0,1418.0,0.0,6.549785614013672,-0.12502162158489227,1500.0,1.0,,,,,,,
8.999992999999996,-0.10169976204633713,7.7700000000000005,197.0,-14.0,2.8367960453033447,5.0,51.4593936,0.0,-12.165515899658203,27.759407999999997,-0.004537856055185257,5.0,0.0,1000.0,1500.0,1.370215892791748,0.0,-1.6586507558822632,1500.0,0.0,4.0409417152404785,27.778751999999997,0.0,0.00942477796076938,-3.0,0.0,0.0,0.0,-0.3153809958353754,444.0,0.0,749.5315475463867,0.3741985916275843,2.0305160517702032,0.0012217304763960308,-0.021189626306295395,1572.0,-1.146647334098816,-2.7911866,0.0,1495.0,1604.0,17.0,1418.0,0.0,6.760164260864258,-0.0033924104645848274,1500.0,1.0,,,,,,,
9.099976999999999,-0.32139283418655396,7.7700000000000005,197.0,-14.0,2.8367960453033447,5.0,51.4593936,0.0,-8.195211410522461,27.839191,-0.0041887902047863905,5.0,0.0,1000.0,1500.0,1.5795544385910034,0.0,-1.6586507558822632,1500.0,0.0,1.7628198862075806,27.878736,0.0,0.008726646259971648,-3.0,0.0,0.0,0.0,-0.2998475654926258,444.0,0.0,749.5129089355469,0.364424747816416,2.018473279931442,0.0013962634015954637,0.04446641355752945,1572.0,-1.1796875,-2.7911866,0.0,1495.0,1604.0,17.0,1418.0,0.0,2.1892640590667725,-0.04987136274576187,1500.0,1.0,,,,,,,
9.199987999999998,-0.10227715969085693,7.74,197.0,-14.0,3.0934252738952637,5.0,51.459392199999996,0.0,-5.410158157348633,27.959439,-0.004014257279586958,5.0,0.0,1000.0,1500.0,1.4599324464797974,0.0,-1.8144972324371338,1500.0,0.0,1.3286724090576172,27.978747,0.0,0.007853981633974483,-3.0,0.0,0.0,0.0,-0.26511551337793865,444.0,0.0,749.5315475463867,0.3584906283596353,1.9814722997891623,0.0017453292519943296,0.13436762988567352,1572.0,-1.2322983741760254,-2.7911829,0.0,1494.0,1605.0,17.0,1418.0,0.0,3.361342668533325,-0.12938767671585083,1500.0,1.0,,,,,,,
9.299971999999997,0.14469470083713531,7.74,197.0,-14.0,3.0934252738952637,5.0,51.459392199999996,0.0,-6.870573043823242,28.03973,-0.003665191429188092,5.0,0.0,1000.0,1500.0,1.2587499618530273,0.0,-1.8144972324371338,1501.0,0.0,2.1196155548095703,28.078730999999998,0.0,0.007330382858376184,-3.0,0.0,0.0,0.0,-0.2790781473938933,444.0,0.0,749.5315475463867,0.3672172746196069,1.9533724988320535,0.0019198621771937625,0.13310331106185913,1572.0,-1.2483808994293213,-2.7911829,0.0,1495.0,1605.0,17.0,1417.0,0.0,4.3419599533081055,-0.07122732698917389,1500.0,1.0,,,,,,,
9.399999999999999,0.1758543848991394,7.8100000000000005,197.0,-14.0,3.3569908142089844,5.0,51.459391,0.0,-9.314489364624023,28.159701,-0.0033161255787892262,5.0,0.0,1000.0,1500.0,1.2397191524505615,0.0,-1.9480798244476318,1500.0,0.0,3.792288064956665,28.178759,0.0,0.006806784082777886,-3.0,0.0,0.0,0.0,-0.33440508468211355,444.0,0.0,749.5315475463867,0.3933972133995219,1.9366173380129081,0.0020943951023931952,0.09668974578380585,1572.0,-1.2475658655166626,-2.7911791,0.0,1494.0,1605.0,16.0,1418.0,0.0,5.809915542602539,-0.014094539918005466,1500.0,1.0,,,,,,,
9.499991999999999,0.010326508432626724,7.8100000000000005,197.0,-14.0,3.3569908142089844,5.0,51.459391,0.0,-9.809552192687988,28.239199,-0.003141592653589793,5.0,0.0,1000.0,1500.0,1.334873080253601,0.0,-1.9480798244476318,1500.0,0.0,4.3987298011779785,28.278751,0.0,0.006283185307179586,-3.0,0.0,0.0,0.0,-0.35918876006043304,444.0,0.0,749.5129089355469,0.40404372183668735,1.9476129123004724,0.0022689280275926286,0.05944712460041046,1572.0,-1.251042127609253,-2.7911791,0.0,1494.0,1605.0,16.0,1418.0,0.0,7.7177934646606445,0.014398026280105114,1500.0,1.0,,,,,,,
9.599918999999996,-0.3215957581996918,7.78,197.0,-14.0,3.620556354522705,5.0,51.459389699999996,0.0,-8.857009887695312,28.359513999999997,-0.0029670597283903604,5.0,0.0,1000.0,1500.0,1.617616057395935,0.0,-2.092794179916382,1500.0,0.0,4.572790622711182,28.378677999999997,0.0,0.005934119456780721,-3.0,0.0,0.0,0.0,-0.3762929867299774,444.0,0.0,749.5315475463867,0.3975860036043083,2.0004963886359004,0.0024434609527920616,-0.054778508841991425,1572.0,-1.2847678661346436,-2.7911753,0.0,1495.0,1605.0,17.0,1417.0,0.0,3.080840587615967,-0.023675821721553802,1501.0,1.0,,,,,,,
9.699984999999998,-0.2771797776222229,7.78,197.0,-14.0,3.620556354522705,5.0,51.459389699999996,0.0,-5.755974769592285,28.439093,-0.0027925268031909274,5.0,0.0,1001.0,1500.0,1.555086374282837,0.0,-2.092794179916382,1500.0,0.0,1.7844734191894531,28.478744,0.0,0.0054105206811824215,-3.0,0.0,0.0,0.0,-0.3513347784264585,444.0,0.0,749.5129089355469,0.3790855135331684,2.0392426980301748,0.0024434609527920616,0.02036300301551819,1571.0,-1.3211358785629272,-2.7911753,0.0,1495.0,1605.0,17.0,1418.0,0.0,2.93627667427063,-0.13262437283992767,1500.0,1.0,,,,,,,
9.799979999999998,0.13069899380207062,7.84,197.0,-14.0,3.863313674926758,5.0,51.459388399999995,0.0,-5.037044525146484,28.559756,-0.002617993877991494,5.0,0.0,1000.0,1500.0,1.3729345798492432,0.0,-2.237508773803711,1500.0,0.0,2.4782025814056396,28.578739,0.0,0.004886921905584123,-3.0,0.0,0.0,0.0,-0.3256784384221419,444.0,0.0,749.5129089355469,0.3680899392456041,2.086366587834022,0.002617993877991494,0.009497331455349922,1572.0,-1.3533426523208618,-2.7911718,0.0,1495.0,1604.0,17.0,1418.0,0.0,3.9774105548858643,-0.12356145679950714,1500.0,1.0,,,,,,,
9.899987999999997,0.2485637366771698,7.84,197.0,-14.0,3.863313674926758,5.0,51.459388399999995,0.0,-7.991026401519775,28.639746,-0.0022689280275926286,5.0,0.0,1000.0,1500.0,1.41371488571167,0.0,-2.237508773803711,1500.0,0.0,2.7393736839294434,28.678746999999998,0.0,0.004363323129985824,-3.0,0.0,0.0,0.0,-0.30927234345339516,444.0,0.0,749.5129089355469,0.38117990863556156,2.097885760897184,0.0027925268031909274,-0.08099477738142014,1572.0,-1.3500943183898926,-2.7911718,0.0,1494.0,1605.0,17.0,1418.0,0.0,6.399827003479004,-0.04111910238862038,1500.0,1.0,,,,,,,
9.999970999999999,0.0718315839767456,7.8500000000000005,197.0,-14.0,4.092199802398682,5.0,51.459387,0.0,-11.071412086486816,28.759286999999997,-0.0020943951023931952,5.0,0.0,1000.0,1500.0,1.353903889656067,0.0,-2.393355131149292,1500.0,0.0,3.230358123779297,28.77873,0.0,0.003665191429188092,-3.0,0.0,0.0,0.0,-0.2965314399138366,444.0,0.0,749.5129089355469,0.41154863762026295,2.0956168328695917,0.0029670597283903604,-0.13176681101322174,1572.0,-1.3448208570480347,-2.7911685,0.0,1495.0,1605.0,17.0,1417.0,0.0,7.3274431228637695,0.05757777392864227,1500.0,1.0,,,,,,,
10.099995999999997,-0.3159220814704895,7.8500000000000005,197.0,-14.0,4.092199802398682,5.0,51.459387,0.0,-10.072881698608398,28.839167,-0.0017453292519943296,5.0,0.0,1000.0,1500.0,1.476244568824768,0.0,-2.393355131149292,1501.0,0.0,2.6403417587280273,28.878754999999998,0.0,0.003141592653589793,-3.0,0.0,0.0,0.0,-0.2961823740634377,444.0,0.0,749.5129089355469,0.41661009245104647,2.0875883183104174,0.003141592653589793,-0.08697390556335449,1572.0,-1.363585114479065,-2.7911685,0.0,1495.0,1605.0,17.0,1417.0,0.0,4.535315990447998,0.10143798589706421,1500.0,1.0,,,,,,,
10.199993999999997,-0.3377644121646881,7.8100000000000005,197.0,-14.0,4.341893196105957,5.0,51.4593853,0.0,-6.7201642990112305,28.959393,-0.0015707963267948964,5.0,0.0,1000.0,1500.0,1.5469303131103516,0.0,-2.582597255706787,1500.0,0.0,1.7652713060379028,28.978752999999998,0.0,0.002617993877991494,-3.0,0.0,0.0,0.0,-0.27576202181510406,444.0,0.0,749.6814041137695,0.40072759625789806,2.065946235585688,0.0033161255787892262,0.05993408337235451,1572.0,-1.423038363456726,-2.7911649,0.0,1494.0,1605.0,17.0,1418.0,0.0,3.560619831085205,0.011280445381999016,1500.0,1.0,,,,,,,
10.299940999999997,-0.1394454836845398,7.8100000000000005,197.0,-14.0,4.341893196105957,5.0,51.4593853,0.0,-5.159027576446533,29.039756999999998,-0.0013962634015954637,5.0,0.0,1000.0,1500.0,1.4001214504241943,0.0,-2.582597255706787,1500.0,0.0,1.5336480140686035,29.078699999999998,0.0,0.0022689280275926286,-3.0,0.0,0.0,0.0,-0.2707005669843205,444.0,0.0,749.5129089355469,0.39933133285630257,2.038544566329377,0.003490658503988659,0.08275804668664932,1572.0,-1.4533393383026123,-2.7911649,0.0,1494.0,1605.0,17.0,1418.0,0.0,4.084123134613037,0.0455269031226635,1500.0,1.0,,,,,,,
10.399975999999999,0.16489680111408234,7.88,197.0,-14.0,4.591586589813232,5.0,51.4593839,0.0,-6.509941577911377,29.159437999999998,-0.0010471975511965976,5.0,0.0,1000.0,1500.0,1.3729345798492432,0.0,-2.738443613052368,1500.0,0.0,2.5049147605895996,29.178735,0.0,0.0017453292519943296,-3.0,0.0,0.0,0.0,-0.3125884690321844,444.0,0.0,749.6814041137695,0.41277036809665896,2.0149826214274533,0.003490658503988659,0.05276909098029137,1572.0,-1.4650707244873047,-2.7911612999999997,0.0,1495.0,1605.0,17.0,1417.0,0.0,4.904379844665527,0.11935734003782272,1501.0,1.0,,,,,,,
10.499967999999999,0.16783407330513,7.88,197.0,-14.0,4.591586589813232,5.0,51.4593839,0.0,-9.272698402404785,29.239234999999997,-0.0008726646259971648,5.0,0.0,1000.0,1500.0,1.4381829500198364,0.0,-2.738443613052368,1500.0,0.0,4.114252090454102,29.278727,0.0,0.0015707963267948964,-3.0,0.0,0.0,0.0,-0.3466223894460738,444.0,0.0,749.6814041137695,0.43039819354180164,2.0202186091834364,0.003665191429188092,0.032878343015909195,1572.0,-1.4572495222091675,-2.7911612999999997,0.0,1495.0,1605.0,17.0,1417.0,0.0,6.408599376678467,0.15278497338294983,1500.0,1.0,,,,,,,
10.600002999999997,-0.23747988045215607,7.86,197.0,-14.0,4.8482160568237305,5.0,51.4593825,0.0,-10.178571701049805,29.359645999999998,-0.0008726646259971648,5.0,0.0,1000.0,1500.0,1.4653698205947876,0.0,-2.894289970397949,1500.0,0.0,5.936305522918701,29.378762,0.0,0.0012217304763960308,-3.0,0.0,0.0,0.0,-0.3808308427851627,444.0,0.0,749.6814041137695,0.4295255289158045,2.0608847807549044,0.003665191429188092,-0.0259241946041584,1572.0,-1.4649451971054077,-2.7911576,0.0,1494.0,1605.0,17.0,1418.0,0.0,6.431270122528076,0.1665685772895813,1500.0,1.0,,,,,,,
10.699982999999996,-0.36105263233184814,7.86,197.0,-14.0,4.8482160568237305,5.0,51.4593825,0.0,-7.4513044357299805,29.439194999999998,-0.0006981317007977319,5.0,0.0,1000.0,1500.0,1.5061500072479248,0.0,-2.894289970397949,1500.0,0.0,3.627366304397583,29.478741999999997,0.0,0.0008726646259971648,-3.0,0.0,0.0,0.0,-0.3733259270015871,444.0,0.0,749.5129089355469,0.39549160850191506,2.0980602938223836,0.003839724354387525,-0.04417089745402336,1572.0,-1.4957507848739624,-2.7911576,0.0,1494.0,1605.0,17.0,1418.0,0.0,2.569401979446411,0.049845244735479355,1500.0,1.0,,,,,,,
10.800002999999997,-0.17354607582092285,7.88,197.0,-14.0,5.111781597137451,5.0,51.4593813,0.0,-5.678603172302246,29.559839999999998,-0.0005235987755982988,5.0,0.0,1000.0,1500.0,1.3974027633666992,0.0,-3.0278725624084473,1500.0,0.0,2.729806423187256,29.578761999999998,0.0,0.00034906585039886593,-3.0,0.0,0.0,0.0,-0.36163222101322506,444.0,0.0,749.5129089355469,0.35726889788323923,2.163161074921772,0.003839724354387525,-0.016381017863750458,1572.0,-1.5378942489624023,-2.7911538,0.0,1495.0,1605.0,17.0,1417.0,0.0,3.8459367752075195,-0.08313550800085068,1500.0,1.0,,,,,,,
10.900011999999997,0.01943379081785679,7.88,197.0,-14.0,5.111781597137451,5.0,51.4593813,0.0,-5.884346008300781,29.63973,-0.00017453292519943296,5.0,0.0,1000.0,1500.0,1.4436203241348267,0.0,-3.0278725624084473,1500.0,0.0,3.258345603942871,29.678770999999998,0.0,0.0,-3.0,0.0,0.0,0.0,-0.3490658503988659,444.0,0.0,748.4470367431641,0.3546509040052478,2.1996384562884534,0.004014257279586958,-0.08644583821296692,1572.0,-1.548723816871643,-2.7911538,0.0,1495.0,1605.0,17.0,1417.0,0.0,5.064941883087158,-0.04791088029742241,1500.0,1.0,,,,,,,
10.999997999999998,0.11718031018972397,7.9,197.0,-14.0,5.32679557800293,5.0,51.459379999999996,0.0,-8.753630638122559,29.759286999999997,0.0,5.0,0.0,1000.0,1500.0,1.3865280151367188,0.0,-3.1725871562957764,1500.0,0.0,3.115675210952759,29.778757,0.0,-0.0005235987755982988,-3.0,0.0,0.0,0.0,-0.3300417615521277,444.0,0.0,749.5129089355469,0.3780383159819718,2.2282618560211604,0.0041887902047863905,-0.21914882957935333,1572.0,-1.5436569452285767,-2.7911506999999998,0.0,1494.0,1605.0,17.0,1418.0,0.0,5.7983012199401855,0.037557318806648254,1500.0,1.0,,,,,,,
11.099934999999999,-0.049556925892829895,7.9,197.0,-14.0,5.32679557800293,5.0,51.459379999999996,0.0,-11.412552833557129,29.839199999999998,0.00017453292519943296,5.0,0.0,1000.0,1500.0,1.4789632558822632,0.0,-3.1725871562957764,1500.0,0.0,3.9049935340881348,29.878694,0.0,-0.0008726646259971648,-3.0,0.0,0.0,0.0,-0.33126349202852373,444.0,0.0,749.5129089355469,0.40072759625789806,2.2298326523479557,0.004363323129985824,-0.2458380162715912,1572.0,-1.5428744554519653,-2.7911506999999998,0.0,1494.0,1605.0,17.0,1418.0,0.0,7.0121541023254395,0.08395538479089737,1500.0,1.0,,,,,,,
11.200002999999999,-0.42041078209877014,7.82,197.0,-14.0,5.534873008728027,5.0,51.459378199999996,0.0,-10.261578559875488,29.959422999999997,0.00034906585039886593,5.0,0.0,1000.0,1500.0,1.451776385307312,0.0,-3.3729610443115234,1500.0,0.0,2.929048538208008,29.978762,0.0,-0.0013962634015954637,-3.0,0.0,0.0,0.0,-0.34574972482007665,444.0,0.0,749.5129089355469,0.4014257279586958,2.229483586497557,0.004363323129985824,-0.14566093683242798,1572.0,-1.5792832374572754,-2.7911477,0.0,1495.0,1604.0,16.0,1418.0,0.0,3.2912745475769043,0.05219723656773567,1500.0,1.0,,,,,,,
11.299965999999998,-0.47845765948295593,7.82,197.0,-14.0,5.534873008728027,5.0,51.459378199999996,0.0,-6.487124443054199,30.039716,0.0005235987755982988,5.0,0.0,1000.0,1500.0,1.5414929389953613,0.0,-3.3729610443115234,1500.0,0.0,3.1126980781555176,30.078725,0.0,-0.0019198621771937625,-3.0,0.0,0.0,0.0,-0.3431317309420852,444.0,0.0,749.5129089355469,0.3944444109507185,2.2249457304423714,0.004537856055185257,-0.01014176569879055,1572.0,-1.6191160678863525,-2.7911477,0.0,1495.0,1604.0,16.0,1418.0,0.0,3.954669952392578,-0.05025246739387512,1500.0,1.0,,,,,,,
11.399956999999997,-0.19870325922966003,7.83,197.0,-14.0,5.75682258605957,5.0,51.4593767,0.0,-4.856863021850586,30.159262,0.0008726646259971648,5.0,0.0,1000.0,1500.0,1.4327455759048462,0.0,-3.5399391651153564,1500.0,0.0,1.330024003982544,30.178715999999998,0.0,-0.0022689280275926286,-3.0,0.0,0.0,0.0,-0.3324852225049198,444.0,0.0,750.5817184448242,0.3860668305411457,2.2218041377887814,0.00471238898038469,-0.057350948452949524,1572.0,-1.6698099374771118,-2.7911444999999997,0.0,1494.0,1605.0,16.0,1418.0,0.0,4.000051975250244,-0.029964042827486992,1500.0,1.0,,,,,,,
11.499888999999996,0.042112842202186584,7.83,197.0,-14.0,5.75682258605957,5.0,51.4593767,0.0,-6.777336597442627,30.239027,0.0010471975511965976,5.0,0.0,1000.0,1500.0,1.4844006299972534,0.0,-3.5399391651153564,1500.0,0.0,2.5727553367614746,30.278647999999997,0.0,-0.0027925268031909274,-3.0,0.0,0.0,0.0,-0.3569198320328404,444.0,0.0,749.5129089355469,0.39147735122232813,2.2286109218715593,0.00471238898038469,-0.04722921550273895,1572.0,-1.67918062210083,-2.7911444999999997,0.0,1494.0,1605.0,16.0,1418.0,0.0,4.755611419677734,0.04131890460848808,1500.0,1.0,,,,,,,
11.599960999999997,0.04521724954247475,7.8100000000000005,197.0,-14.0,5.951029300689697,5.0,51.459375699999995,0.0,-9.279991149902344,30.359507999999998,0.0012217304763960308,5.0,0.0,1000.0,1500.0,1.50886869430542,0.0,-3.6512582302093506,1500.0,0.0,4.240787982940674,30.378719999999998,0.0,-0.003141592653589793,-3.0,0.0,0.0,0.0,-0.4094542425178697,444.0,0.0,749.5129089355469,0.4082325120414737,2.2544417948010755,0.004886921905584123,-0.045314058661460876,1572.0,-1.6734315156936646,-2.7911417,0.0,1495.0,1605.0,16.0,1417.0,0.0,6.35977029800415,0.09083569049835205,1500.0,1.0,,,,,,,
11.699929999999998,-0.29870060086250305,7.8100000000000005,197.0,-14.0,5.951029300689697,5.0,51.459375699999995,0.0,-9.39969253540039,30.439214,0.0015707963267948964,5.0,0.0,1000.0,1500.0,1.353903889656067,0.0,-3.6512582302093506,1500.0,0.0,5.5424652099609375,30.478689,0.0,-0.003665191429188092,-3.0,0.0,0.0,0.0,-0.41608649367544814,444.0,0.0,748.4470367431641,0.4068362486398782,2.2813198652817883,0.004886921905584123,-0.0471133291721344,1572.0,-1.6829546689987183,-2.7911417,0.0,1494.0,1605.0,16.0,1418.0,0.0,5.544639587402344,0.09618400037288666,1500.0,1.0,,,,,,,
11.799949999999999,-0.4376060962677002,7.78,197.0,-14.0,6.159107208251953,5.0,51.4593743,0.0,-7.39740514755249,30.559742999999997,0.0017453292519943296,5.0,0.0,1000.0,1501.0,1.5877104997634888,0.0,-3.8071045875549316,1500.0,0.0,4.305731773376465,30.578709,0.0,-0.004014257279586958,-3.0,0.0,0.0,0.0,-0.37088246604879505,444.0,0.0,748.4470367431641,0.3637266161156183,2.334901473318014,0.005061454830783556,-0.045866791158914566,1572.0,-1.733980655670166,-2.7911387,0.0,1495.0,1605.0,15.0,1417.0,0.0,2.913172721862793,-0.05585348978638649,1500.0,1.0,,,,,,,
11.899974999999998,-0.3397477865219116,7.78,197.0,-14.0,6.159107208251953,5.0,51.4593743,0.0,-5.640954971313477,30.639678,0.0019198621771937625,5.0,0.0,1000.0,1500.0,1.4979939460754395,0.0,-3.8071045875549316,1500.0,0.0,2.225224494934082,30.678734,0.0,-0.004537856055185257,-3.0,0.0,0.0,0.0,-0.35255650890285456,444.0,0.0,748.4470367431641,0.3440043955680824,2.3750440461138838,0.005235987755982988,-0.04879971221089363,1571.0,-1.7659424543380737,-2.7911387,0.0,1495.0,1605.0,15.0,1418.0,0.0,4.1944193840026855,-0.13701236248016357,1500.0,1.0,,,,,,,
11.999959999999998,-0.06279284507036209,7.79,197.0,-14.0,6.353312969207764,5.0,51.459372699999996,0.0,-5.7572455406188965,30.759508999999998,0.0022689280275926286,5.0,0.0,1000.0,1500.0,1.4409016370773315,0.0,-3.9852147102355957,1500.0,0.0,3.175797939300537,30.778719,0.0,-0.004886921905584123,-3.0,0.0,0.0,0.0,-0.3501130479500625,444.0,0.0,750.0000228881836,0.34871678454846705,2.41920087618934,0.005235987755982988,-0.1526729315519333,1572.0,-1.792114019393921,-2.7911359,0.0,1495.0,1604.0,15.0,1418.0,0.0,4.817323684692383,-0.0766121968626976,1500.0,1.0,,,,,,,
12.099922,0.04581800848245621,7.79,197.0,-14.0,6.353312969207764,5.0,51.459372699999996,0.0,-8.442574501037598,30.839088999999998,0.0024434609527920616,5.0,0.0,1000.0,1500.0,1.5387742519378662,0.0,-3.9852147102355957,1500.0,0.0,2.6747450828552246,30.878681,0.0,-0.0054105206811824215,-3.0,0.0,0.0,0.0,-0.3513347784264585,444.0,0.0,750.0000228881836,0.3729768611511882,2.4347343065320897,0.0054105206811824215,-0.25052571296691895,1572.0,-1.7921258211135864,-2.7911359,0.0,1495.0,1604.0,15.0,1418.0,0.0,5.5689544677734375,-0.041443973779678345,1500.0,1.0,,,,,,,
12.199901999999998,-0.18383841216564178,7.75,197.0,-14.0,6.519775390625,5.0,51.4593713,0.0,-12.647594451904297,30.959196,0.002617993877991494,5.0,0.0,1000.0,1500.0,1.353903889656067,0.0,-4.141060829162598,1500.0,0.0,4.2802653312683105,30.978661,0.0,-0.005759586531581287,-3.0,0.0,0.0,0.0,-0.3544763710800483,444.0,0.0,750.0000228881836,0.4185299546282402,2.4467770783708507,0.005585053606381855,-0.2569662928581238,1572.0,-1.7937380075454712,-2.7911335,0.0,1494.0,1605.0,15.0,1418.0,0.0,7.302674770355225,0.041970834136009216,1500.0,1.0,,,,,,,
12.299905999999996,-0.5218532085418701,7.75,197.0,-14.0,6.519775390625,5.0,51.4593713,0.0,-9.014608383178711,31.039754,0.0029670597283903604,5.0,0.0,1000.0,1500.0,1.4082775115966797,0.0,-4.141060829162598,1501.0,0.0,2.3001866340637207,31.078664999999997,0.0,-0.006283185307179586,-3.0,0.0,0.0,0.0,-0.3352777493081107,444.0,0.0,750.0000228881836,0.4199262180298357,2.4572490538828164,0.005585053606381855,-0.16926676034927368,1572.0,-1.8218481540679932,-2.7911335,0.0,1495.0,1605.0,15.0,1417.0,0.0,3.757955551147461,0.005701743066310883,1500.0,1.0,,,,,,,
12.399942999999997,-0.4952714443206787,7.69,197.0,-14.0,6.686237812042236,5.0,51.4593699,0.0,-6.486037731170654,31.159585999999997,0.003141592653589793,5.0,0.0,1000.0,1500.0,1.677427053451538,0.0,-4.296907424926758,1500.0,0.0,1.609461784362793,31.178701999999998,0.0,-0.0066322511575784525,-3.0,0.0,0.0,0.0,-0.2893755899806599,444.0,0.0,750.0000228881836,0.4084070449666731,2.458994383134811,0.005759586531581287,-0.02954641357064247,1572.0,-1.880501627922058,-2.7911311,0.0,1494.0,1605.0,15.0,1418.0,0.0,4.318926811218262,-0.006565513089299202,1500.0,1.0,,,,,,,
12.499930999999997,-0.29768434166908264,7.69,197.0,-14.0,6.686237812042236,5.0,51.4593699,0.0,-5.55258321762085,31.239093999999998,0.003490658503988659,5.0,0.0,1000.0,1500.0,1.3593411445617676,0.0,-4.296907424926758,1500.0,0.0,1.9598150253295898,31.278689999999997,0.0,-0.007155849933176752,-3.0,0.0,0.0,0.0,-0.2879793265790644,444.0,0.0,750.0000228881836,0.4042182547618867,2.4623105087136,0.005934119456780721,-0.027673151344060898,1572.0,-1.91044020652771,-2.7911311,0.0,1494.0,1605.0,15.0,1418.0,0.0,3.72585391998291,0.03643174469470978,1500.0,1.0,,,,,,,
12.599877999999997,-0.02536020427942276,7.7,197.0,-14.0,6.887380123138428,5.0,51.459368299999994,0.0,-7.175806522369385,31.359227999999998,0.003665191429188092,5.0,0.0,1000.0,1500.0,1.4436203241348267,0.0,-4.475017547607422,1500.0,0.0,2.3116817474365234,31.378636999999998,0.0,-0.007504915783575617,-3.0,0.0,0.0,0.0,-0.32690016889853796,444.0,0.0,750.0000228881836,0.4185299546282402,2.493551902324299,0.005934119456780721,-0.0230704415589571,1572.0,-1.9237995147705078,-2.7911281999999997,0.0,1495.0,1605.0,15.0,1417.0,0.0,4.639582633972168,0.06018589064478874,1501.0,1.0,,,,,,,
12.699969999999997,-0.06399406492710114,7.7,197.0,-14.0,6.887380123138428,5.0,51.459368299999994,0.0,-11.03150749206543,31.439085,0.003839724354387525,5.0,0.0,1001.0,1500.0,1.5306181907653809,0.0,-4.475017547607422,1500.0,0.0,5.361354351043701,31.478728999999998,0.0,-0.00767944870877505,-3.0,0.0,0.0,0.0,-0.35377823937925057,444.0,0.0,750.0000228881836,0.43441245082138863,2.5378832653249543,0.006108652381980154,0.03003004565834999,1571.0,-1.9192928075790405,-2.7911281999999997,0.0,1495.0,1605.0,15.0,1418.0,0.0,6.936627388000488,0.07394883781671524,1500.0,1.0,,,,,,,
12.799942999999999,-0.5504502058029175,7.65,197.0,-14.0,7.088521957397461,5.0,51.459366599999996,0.0,-8.65925407409668,31.559813,0.004014257279586958,5.0,0.0,1000.0,1500.0,1.356622576713562,0.0,-4.664259433746338,1500.0,0.0,5.208535671234131,31.578702,0.0,-0.00820304748437335,-3.0,0.0,0.0,0.0,-0.3331833542057175,444.0,0.0,751.9362487792969,0.4167846253762459,2.6382396973146283,0.006108652381980154,0.031557437032461166,1572.0,-1.9470775127410889,-2.7911253,0.0,1494.0,1605.0,15.0,1418.0,0.0,4.280345916748047,-0.08118809014558792,1500.0,1.0,,,,,,,
12.899904999999997,-0.5362951159477234,7.65,197.0,-14.0,7.088521957397461,5.0,51.459366599999996,0.0,-6.8325347900390625,31.639716999999997,0.0041887902047863905,5.0,0.0,1000.0,1500.0,1.5849918127059937,0.0,-4.664259433746338,1500.0,0.0,2.95638370513916,31.678663999999998,0.0,-0.008552113334772215,-3.0,0.0,0.0,0.0,-0.2975786374650332,444.0,0.0,750.0000228881836,0.3830997708127553,2.7235862977371514,0.006283185307179586,0.0988970622420311,1572.0,-1.9834067821502686,-2.7911253,0.0,1494.0,1605.0,15.0,1418.0,0.0,2.964583396911621,-0.253219872713089,1500.0,1.0,,,,,,,
12.999944,-0.2348477691411972,7.65,197.0,-14.0,7.24111270904541,5.0,51.459365399999996,0.0,-5.556271076202393,31.75939,0.004363323129985824,5.0,0.0,1000.0,1500.0,1.4680885076522827,0.0,-4.797842025756836,1500.0,0.0,2.426344394683838,31.778703,0.0,-0.00890117918517108,-3.0,0.0,0.0,0.0,-0.2672099084803319,444.0,0.0,750.0000228881836,0.3511602455012591,2.858674781841512,0.006283185307179586,0.1536932736635208,1572.0,-2.0212321281433105,-2.7911231,0.0,1495.0,1605.0,16.0,1417.0,0.0,3.2412965297698975,-0.34398311376571655,1500.0,1.0,,,,,,,
13.099930999999998,-0.08170556277036667,7.65,197.0,-14.0,7.24111270904541,5.0,51.459365399999996,0.0,-7.233630180358887,31.839085999999998,0.00471238898038469,5.0,0.0,1000.0,1500.0,1.41371488571167,0.0,-4.797842025756836,1501.0,0.0,2.541750907897949,31.87869,0.0,-0.009250245035569947,-3.0,0.0,0.0,0.0,-0.2579596634447619,444.0,0.0,750.0000228881836,0.3513347784264585,2.944370448114434,0.006457718232379019,0.12718205153942108,1572.0,-2.0250394344329834,-2.7911231,0.0,1495.0,1605.0,16.0,1417.0,0.0,4.880556106567383,-0.38505828380584717,1500.0,1.0,,,,,,,
13.199932999999998,-0.03082682006061077,7.66,197.0,-14.0,7.338215351104736,5.0,51.4593645,0.0,-8.45287036895752,31.959387,0.00471238898038469,5.0,0.0,1000.0,1500.0,1.3511852025985718,0.0,-4.898029327392578,1500.0,0.0,2.2436885833740234,31.978692,0.0,-0.009599310885968814,-3.0,0.0,0.0,0.0,-0.22479840765686965,444.0,0.0,750.0000228881836,0.36617007706841037,3.073350279836815,0.0066322511575784525,0.07292687892913818,1572.0,-2.0162041187286377,-2.7911216999999997,0.0,1494.0,1605.0,16.0,1418.0,0.0,4.78339147567749,-0.39556777477264404,1500.0,1.0,,,,,,,
13.299864,-0.07625775039196014,7.66,197.0,-14.0,7.338215351104736,5.0,51.4593645,0.0,-10.946496963500977,32.039411,0.004886921905584123,5.0,0.0,1000.0,1500.0,1.4191522598266602,0.0,-4.898029327392578,1500.0,0.0,2.4711251258850098,32.078623,0.0,-0.009773843811168246,-3.0,0.0,0.0,0.0,-0.19338248112097173,444.0,0.0,748.4470367431641,0.37838738183237064,3.167947125294907,0.0066322511575784525,0.07598235458135605,1572.0,-2.006833076477051,-2.7911216999999997,0.0,1494.0,1605.0,16.0,1418.0,0.0,4.957817077636719,-0.39668840169906616,1500.0,1.0,,,,,,,
13.399974999999998,-0.3595716655254364,7.59,197.0,-14.0,7.483869552612305,5.0,51.4593633,0.0,-10.341676712036133,32.159372,0.005061454830783556,5.0,0.0,1000.0,1500.0,1.3810906410217285,0.0,-5.031611919403076,1501.0,0.0,3.1764886379241943,32.178734,0.0,-0.010122909661567111,-3.0,0.0,0.0,0.0,-0.13892820845874862,444.0,0.0,750.0000228881836,0.36320301734002,3.327470218927189,0.006806784082777886,0.3229508399963379,1572.0,-2.0117809772491455,-2.7911196,0.0,1495.0,1605.0,15.0,1417.0,0.0,2.7496156692504883,-0.3747129738330841,1500.0,1.0,,,,,,,
13.499902999999996,-0.3853684961795807,7.59,197.0,-14.0,7.483869552612305,5.0,51.4593633,0.0,-8.26699161529541,32.239160999999996,0.005235987755982988,5.0,0.0,1000.0,1500.0,1.3865280151367188,0.0,-5.031611919403076,1500.0,0.0,0.25142255425453186,32.278662,0.0,-0.010297442586766544,-3.0,0.0,0.0,0.0,-0.0916297857297023,444.0,0.0,750.0000228881836,0.3277728335245351,3.4243359924128747,0.006806784082777886,0.46932825446128845,1572.0,-2.0263915061950684,-2.7911196,0.0,1495.0,1604.0,15.0,1418.0,0.0,3.472883701324463,-0.41066619753837585,1500.0,1.0,,,,,,,
13.599979999999995,-0.2220495194196701,7.59,197.0,-14.0,7.601780891418457,5.0,51.4593621,0.0,-7.3932414054870605,32.359393,0.005235987755982988,5.0,0.0,1000.0,1500.0,1.2587499618530273,0.0,-5.165194511413574,1500.0,0.0,0.1486944854259491,32.378738999999996,0.0,-0.010471975511965976,-3.0,0.0,0.0,0.0,-0.06719517620178168,444.0,0.0,750.0000228881836,0.2506292805863857,3.5704200508048,0.006981317007977318,0.5082198977470398,1572.0,-2.039612054824829,-2.7911178999999997,0.0,1494.0,1605.0,15.0,1418.0,0.0,1.9362101554870605,-0.3227233290672302,1500.0,1.0,,,,,,,
13.699888999999999,-0.06841786205768585,7.59,197.0,-14.0,7.601780891418457,5.0,51.4593621,0.0,-9.059643745422363,32.439035,0.0054105206811824215,5.0,0.0,1000.0,1500.0,1.215251088142395,0.0,-5.165194511413574,1500.0,0.0,-0.34421947598457336,32.478648,0.0,-0.01064650843716541,-3.0,0.0,0.0,0.0,-0.0736528944341607,444.0,0.0,750.0000228881836,0.19879300180215415,3.6711255486448726,0.006981317007977318,0.5493806600570679,1572.0,-2.030531644821167,-2.7911178999999997,0.0,1494.0,1605.0,15.0,1418.0,0.0,1.3727864027023315,-0.21619737148284912,1500.0,1.0,,,,,,,
13.79994,-0.024385320022702217,7.55,197.0,-14.0,7.671139717102051,5.0,51.4593609,0.0,-9.902841567993164,32.559739,0.0054105206811824215,5.0,0.0,1000.0,1500.0,1.2234070301055908,0.0,-5.298777103424072,1500.0,0.0,0.486321359872818,32.578699,0.0,-0.010471975511965976,-3.0,0.0,0.0,0.0,-0.11082840750163994,444.0,0.0,750.0000228881836,0.13421581947836395,3.8280306483991633,0.006981317007977318,0.5993304252624512,1572.0,-1.9977177381515503,-2.7911169,0.0,1495.0,1605.0,15.0,1417.0,0.0,1.364745855331421,0.004741947632282972,1500.0,1.0,,,,,,,
13.899963,-0.04305398091673851,7.55,197.0,-14.0,7.671139717102051,5.0,51.4593609,0.0,-9.16892147064209,32.639747,0.0054105206811824215,5.0,0.0,1000.0,1500.0,1.0901916027069092,0.0,-5.298777103424072,1500.0,0.0,3.1039633750915527,32.678722,0.0,-0.010471975511965976,-3.0,0.0,0.0,0.0,-0.13526301702956053,444.0,0.0,750.0000228881836,0.09861110273767963,3.922627493857256,0.007155849933176752,0.6112327575683594,1572.0,-1.971660852432251,-2.7911169,0.0,1495.0,1605.0,15.0,1417.0,0.0,1.7239186763763428,0.07215516269207001,1500.0,1.0,,,,,,,
13.999893999999998,-0.025839127600193024,7.49,197.0,-14.0,7.754371166229248,5.0,51.459359899999995,0.0,-8.654485702514648,32.759247,0.005235987755982988,5.0,0.0,1000.0,1500.0,1.1146597862243652,0.0,-5.410095691680908,1500.0,0.0,2.5836963653564453,32.778653,0.0,-0.010471975511965976,-3.0,0.0,0.0,0.0,-0.1610938899590766,444.0,0.0,750.0000228881836,0.04782202150464463,4.018446069791745,0.007155849933176752,0.7600461840629578,1572.0,-1.9271565675735474,-2.7911156999999998,0.0,1494.0,1605.0,15.0,1418.0,0.0,1.125826358795166,-0.02117687091231346,1500.0,1.0,,,,,,,
14.099909999999994,0.060688164085149765,7.49,197.0,-14.0,7.754371166229248,5.0,51.459359899999995,0.0,-8.003715515136719,32.839037999999995,0.005235987755982988,5.0,0.0,1000.0,1500.0,1.1500025987625122,0.0,-5.410095691680908,1500.0,0.0,1.9940003156661987,32.878668999999995,0.0,-0.010297442586766544,-3.0,0.0,0.0,0.0,-0.16406094968746698,444.0,0.0,749.6439666748047,0.019198621771937627,4.053178121906432,0.007155849933176752,0.8133148550987244,1571.0,-1.8894662857055664,-2.7911156999999998,0.0,1495.0,1605.0,15.0,1418.0,0.0,0.7432045340538025,-0.031069820746779442,1500.0,1.0,,,,,,,
14.199945999999997,0.2443678379058838,7.3100000000000005,197.0,-14.0,7.8167948722839355,5.0,51.459359199999994,0.0,-8.418976783752441,32.959353,0.005061454830783556,5.0,0.0,1000.0,1500.0,0.9297893643379211,0.0,-5.488018989562988,1500.0,0.0,1.2181670665740967,32.978705,0.0,-0.010122909661567111,-3.0,0.0,0.0,0.0,-0.14119713648634125,444.0,0.0,749.6439666748047,-0.009075712110370514,4.076914599733555,0.007155849933176752,0.8511021733283997,1572.0,-1.8135510683059692,-2.7911148,0.0,1495.0,1604.0,14.0,1418.0,0.0,0.32915282249450684,0.014000553637742996,1500.0,1.0,,,,,,,
14.299940999999997,0.32738980650901794,7.3100000000000005,197.0,-14.0,7.8167948722839355,5.0,51.459359199999994,0.0,-9.676032066345215,33.039646999999995,0.004886921905584123,5.0,0.0,1000.0,1500.0,0.725888192653656,0.0,-5.488018989562988,1500.0,0.0,0.5074419379234314,33.0787,0.0,-0.009948376736367679,-3.0,0.0,0.0,0.0,-0.10838494654884787,444.0,0.0,749.6064758300781,-0.017278759594743863,4.074471138780763,0.007155849933176752,0.8437367677688599,1572.0,-1.7489560842514038,-2.7911148,0.0,1495.0,1604.0,14.0,1418.0,0.0,0.6553444266319275,0.08694344013929367,1500.0,1.0,,,,,,,
14.399943,0.3301246464252472,7.140000000000001,197.0,-14.0,7.858409881591797,5.0,51.4593584,0.0,-10.279268264770508,33.15942,0.00471238898038469,5.0,0.0,1000.0,1500.0,0.8998838663101196,0.0,-5.57707405090332,1500.0,0.0,1.2075108289718628,33.178702,0.0,-0.009773843811168246,-3.0,0.0,0.0,0.0,-0.059341194567807204,444.0,0.0,749.6064758300781,-0.022689280275926284,4.057192379186018,0.006981317007977318,0.8113825917243958,1572.0,-1.639355182647705,-2.7911142,0.0,1494.0,1605.0,15.0,1418.0,0.0,0.8325396776199341,0.16338974237442017,1500.0,1.0,,,,,,,
14.499911999999995,0.2502010464668274,7.140000000000001,197.0,-14.0,7.858409881591797,5.0,51.4593584,0.0,-11.57536792755127,33.239041,0.00471238898038469,5.0,0.0,1000.0,1500.0,0.8291981220245361,0.0,-5.57707405090332,1500.0,0.0,-0.21711225807666779,33.278670999999996,0.0,-0.009599310885968814,-3.0,0.0,0.0,0.0,-0.027925268031909273,444.0,0.0,749.6064758300781,-0.02181661564992912,4.041484415918069,0.006981317007977318,0.7935176491737366,1572.0,-1.567194938659668,-2.7911142,0.0,1494.0,1605.0,15.0,1418.0,0.0,0.5112704634666443,0.19385334849357605,1500.0,1.0,,,,,,,
14.599936999999997,0.0396864227950573,6.8,197.0,-14.0,7.837602138519287,5.0,51.4593583,0.0,-11.227243423461914,33.359625,0.004537856055185257,5.0,0.0,1000.0,1500.0,0.6796705722808838,0.0,-5.588205814361572,1500.0,0.0,-0.24546417593955994,33.378696,0.0,-0.00942477796076938,-3.0,0.0,0.0,0.0,0.003141592653589793,444.0,0.0,749.6626586914062,-0.022863813201125717,4.021064063669736,0.006981317007977318,0.7583930492401123,1572.0,-1.4787449836730957,-2.7911145,0.0,1495.0,1604.0,15.0,1418.0,0.0,-0.16905291378498077,0.33854538202285767,1500.0,1.0,,,,,,,
14.699923999999996,-0.05606069415807724,6.8,197.0,-14.0,7.837602138519287,5.0,51.4593583,0.0,-10.963135719299316,33.439102999999996,0.004363323129985824,5.0,0.0,1000.0,1500.0,0.6280156373977661,0.0,-5.588205814361572,1500.0,0.0,-0.5097817182540894,33.478683,0.0,-0.009250245035569947,-3.0,0.0,0.0,0.0,0.013264502315156905,444.0,0.0,749.6626586914062,-0.028099800957108706,4.009370357681374,0.006981317007977318,0.7684759497642517,1572.0,-1.4322588443756104,-2.7911145,0.0,1494.0,1605.0,15.0,1418.0,0.0,-0.13959956169128418,0.4408033490180969,1500.0,1.0,,,,,,,
14.799886,-0.1722889542579651,6.73,197.0,-14.0,7.747435092926025,5.0,51.4593584,0.0,-10.769975662231445,33.559791,0.0041887902047863905,5.0,0.0,1000.0,1500.0,0.644327700138092,0.0,-5.57707405090332,1500.0,0.0,-0.6432939171791077,33.578645,0.0,-0.009075712110370514,-3.0,0.0,0.0,0.0,0.02356194490192345,444.0,0.0,749.7938766479492,-0.034732052114687155,3.9905208017598355,0.006981317007977318,0.734757661819458,1572.0,-1.375163197517395,-2.7911158,0.0,1495.0,1605.0,17.0,1417.0,0.0,0.1866452544927597,0.5802336931228638,1501.0,1.0,,,,,,,
14.899985000000001,-0.23101627826690674,6.73,197.0,-14.0,7.747435092926025,5.0,51.4593584,0.0,-10.311885833740234,33.639813,0.0041887902047863905,5.0,0.0,1001.0,1501.0,0.6579211354255676,0.0,-5.57707405090332,1500.0,0.0,-0.4815530776977539,33.678744,0.0,-0.009075712110370514,-3.0,0.0,0.0,0.0,0.024609142453120045,444.0,0.0,749.7750778198242,-0.03944444109507185,3.9795252274722706,0.006981317007977318,0.6906663775444031,1571.0,-1.3451149463653564,-2.7911158,0.0,1495.0,1605.0,17.0,1417.0,0.0,0.37686946988105774,0.647026777267456,1500.0,1.0,,,,,,,
14.99998,-0.3399527072906494,6.55,197.0,-14.0,7.761307239532471,5.0,51.459358599999995,0.0,-10.451787948608398,33.759235,0.004014257279586958,5.0,0.0,1000.0,1500.0,0.49208152294158936,0.0,-5.554810523986816,1500.0,0.0,-0.9464843273162842,33.778739,0.0,-0.00890117918517108,-3.0,0.0,0.0,0.0,0.005759586531581287,444.0,0.0,749.7938766479492,-0.045727626402251434,3.963817264204322,0.006981317007977318,0.5883607864379883,1572.0,-1.3113452196121216,-2.7911156,0.0,1494.0,1605.0,18.0,1418.0,0.0,0.24367067217826843,0.7782620191574097,1500.0,1.0,,,,,,,
15.099911999999996,-0.3456555902957916,6.55,197.0,-14.0,7.761307239532471,5.0,51.459358599999995,0.0,-11.367877960205078,33.839129,0.003839724354387525,5.0,0.0,1000.0,1500.0,0.60626620054245,0.0,-5.554810523986816,1500.0,0.0,2.836942434310913,33.878671,0.0,-0.008726646259971648,-3.0,0.0,0.0,0.0,-0.02775073510670984,444.0,0.0,749.7750778198242,-0.03682644721708035,3.948458366786772,0.006981317007977318,0.5438607931137085,1572.0,-1.2953017950057983,-2.7911156,0.0,1495.0,1604.0,18.0,1418.0,0.0,0.3648599684238434,0.8592662811279297,1500.0,1.0,,,,,,,
15.199920999999996,-0.37591761350631714,6.46,197.0,-14.0,7.775179386138916,5.0,51.459358699999996,0.0,-9.774356842041016,33.959199999999996,0.003665191429188092,5.0,0.0,1001.0,1500.0,0.4948002099990845,0.0,-5.543678283691406,1500.0,0.0,-0.854968249797821,33.97868,0.0,-0.008726646259971648,-3.0,0.0,0.0,0.0,-0.031939525311496235,444.0,0.0,749.7750778198242,-0.002617993877991494,3.9365901278732105,0.006981317007977318,0.5719290971755981,1571.0,-1.2784862518310547,-2.7911154,0.0,1495.0,1605.0,17.0,1418.0,0.0,1.6310166120529175,0.8354517221450806,1500.0,1.0,,,,,,,
15.299903999999998,-0.3948564827442169,6.46,197.0,-14.0,7.775179386138916,5.0,51.459358699999996,0.0,-9.505093574523926,34.039695,0.003665191429188092,5.0,0.0,1000.0,1500.0,0.5790793299674988,0.0,-5.543678283691406,1500.0,0.0,0.08592183887958527,34.078663,0.0,-0.008552113334772215,-3.0,0.0,0.0,0.0,-0.034557519189487726,444.0,0.0,749.7750778198242,0.014835298641951801,3.9334485352196205,0.006806784082777886,0.4764959216117859,1572.0,-1.2673982381820679,-2.7911154,0.0,1495.0,1605.0,17.0,1417.0,0.0,0.6184711456298828,0.888026237487793,1500.0,1.0,,,,,,,
15.399944999999995,-0.4368990361690521,6.43,197.0,-14.0,7.775179386138916,5.0,51.4593589,0.0,-9.785698890686035,34.159423,0.003490658503988659,5.0,0.0,1000.0,1500.0,0.5518925189971924,0.0,-5.521414756774902,1500.0,0.0,0.06127620488405228,34.178703999999996,0.0,-0.008377580409572781,-3.0,0.0,0.0,0.0,-0.03490658503988659,444.0,0.0,749.9062957763672,0.0291469985083053,3.9327504035188228,0.006806784082777886,0.3735281825065613,1572.0,-1.2564301490783691,-2.7911154,0.0,1494.0,1605.0,17.0,1418.0,0.0,2.377530813217163,0.9132715463638306,1500.0,1.0,,,,,,,
15.499970999999995,-0.4303971529006958,6.43,197.0,-14.0,7.775179386138916,5.0,51.4593589,0.0,-9.947861671447754,34.239131,0.003490658503988659,5.0,0.0,1000.0,1500.0,0.5165496468544006,0.0,-5.521414756774902,1500.0,0.0,0.18549305200576782,34.278729999999996,0.0,-0.008377580409572781,-3.0,0.0,0.0,0.0,-0.03385938748868999,444.0,0.0,749.7750778198242,0.028448866807507574,3.9322268047432245,0.006806784082777886,0.2644270658493042,1572.0,-1.2524877786636353,-2.7911154,0.0,1494.0,1605.0,17.0,1418.0,0.0,0.6769145131111145,0.8633610010147095,1500.0,1.0,,,,,,,
15.599975999999998,-0.4388218820095062,6.4,197.0,-14.0,7.747435092926025,5.0,51.459359299999996,0.0,-9.760672569274902,34.359466,0.0033161255787892262,5.0,0.0,1000.0,1500.0,0.5899540781974792,0.0,-5.476887226104736,1501.0,0.0,0.0462205670773983,34.378735,0.0,-0.008377580409572781,-3.0,0.0,0.0,0.0,-0.0307177948351002,444.0,0.0,749.9062957763672,0.026179938779914945,3.930830541341629,0.006806784082777886,0.16536220908164978,1572.0,-1.2473654747009277,-2.7911158,0.0,1495.0,1605.0,18.0,1417.0,0.0,1.1103557348251343,0.9229131937026978,1500.0,1.0,,,,,,,
15.699939999999998,-0.4393576979637146,6.4,197.0,-14.0,7.747435092926025,5.0,51.459359299999996,0.0,-9.766069412231445,34.439102,0.0033161255787892262,5.0,0.0,1000.0,1500.0,0.4594573378562927,0.0,-5.476887226104736,1500.0,0.0,0.07698091119527817,34.478699,0.0,-0.00820304748437335,-3.0,0.0,0.0,0.0,-0.0328121899374934,444.0,0.0,749.9062957763672,0.024783675378319478,3.9306560084164297,0.006806784082777886,0.12516936659812927,1572.0,-1.2442395687103271,-2.7911158,0.0,1495.0,1605.0,18.0,1417.0,0.0,1.2993638515472412,0.9243373274803162,1501.0,1.0,,,,,,,
15.79994,-0.43004268407821655,6.2700000000000005,197.0,-14.0,7.733563423156738,5.0,51.4593596,0.0,-9.719978332519531,34.560157,0.003141592653589793,5.0,0.0,1000.0,1500.0,0.47576943039894104,0.0,-5.443491458892822,1500.0,0.0,0.038539692759513855,34.578699,0.0,-0.00820304748437335,-3.0,0.0,0.0,0.0,-0.029321531433504737,444.0,0.0,749.9437866210938,0.022689280275926284,3.9294342779400337,0.0066322511575784525,0.02069932222366333,1572.0,-1.238781452178955,-2.7911159999999997,0.0,1494.0,1605.0,18.0,1418.0,0.0,1.3221808671951294,0.9516032338142395,1500.0,1.0,,,,,,,
15.899898,-0.42656049132347107,6.2700000000000005,197.0,-14.0,7.733563423156738,5.0,51.4593596,0.0,-9.743700981140137,34.639764,0.003141592653589793,5.0,0.0,1000.0,1500.0,0.4404265582561493,0.0,-5.443491458892822,1500.0,0.0,0.06138991564512253,34.678657,0.0,-0.008028514559173916,-3.0,0.0,0.0,0.0,-0.031241393610698498,444.0,0.0,749.9062957763672,0.02129301687433082,3.929259745014834,0.0066322511575784525,-0.024096369743347168,1572.0,-1.2334067821502686,-2.7911159999999997,0.0,1494.0,1605.0,18.0,1418.0,0.0,1.3091511726379395,0.9459813237190247,1500.0,1.0,,,,,,,
15.999949999999998,-0.41596072912216187,6.3,197.0,-14.0,7.7127556800842285,5.0,51.4593595,0.0,-9.741076469421387,34.759651999999996,0.0029670597283903604,5.0,0.0,1000.0,1500.0,0.44586390256881714,0.0,-5.454623222351074,1500.0,0.0,-0.0010186959989368916,34.778709,0.0,-0.007853981633974483,-3.0,0.0,0.0,0.0,-0.027925268031909273,444.0,0.0,749.9062957763672,0.019547687622336492,3.928038014538438,0.0066322511575784525,-0.11998776346445084,1572.0,-1.2232182025909424,-2.7911162999999997,0.0,1495.0,1604.0,18.0,1418.0,0.0,1.3030935525894165,0.9600865244865417,1500.0,1.0,,,,,,,
16.099942,-0.4101918637752533,6.3,197.0,-14.0,7.7127556800842285,5.0,51.4593595,0.0,-9.732836723327637,34.83907,0.0029670597283903604,5.0,0.0,1000.0,1500.0,0.565485954284668,0.0,-5.454623222351074,1500.0,0.0,0.1143735945224762,34.878701,0.0,-0.007853981633974483,-3.0,0.0,0.0,0.0,-0.02949606435870417,444.0,0.0,749.7750778198242,0.01832595714594046,3.9275144157628397,0.006457718232379019,-0.16503742337226868,1572.0,-1.2146964073181152,-2.7911162999999997,0.0,1495.0,1605.0,18.0,1417.0,0.0,1.2964990139007568,0.9508196711540222,1500.0,1.0,,,,,,,
16.199948999999997,-0.3985136151313782,6.29,197.0,-14.0,7.705820083618164,5.0,51.4593595,0.0,-9.73984146118164,34.959618,0.0027925268031909274,5.0,0.0,1000.0,1500.0,0.5600485801696777,0.0,-5.454623222351074,1500.0,0.0,0.02002137526869774,34.978708,0.0,-0.00767944870877505,-3.0,0.0,0.0,0.0,-0.02652900463031381,444.0,0.0,749.8125686645508,0.016755160819145562,3.9262926852864437,0.006457718232379019,-0.25069713592529297,1572.0,-1.201776146888733,-2.7911164,0.0,1494.0,1605.0,19.0,1418.0,0.0,1.300362229347229,0.9538944959640503,1500.0,1.0,,,,,,,
16.299934999999998,-0.39249542355537415,6.29,197.0,-14.0,7.705820083618164,5.0,51.4593595,0.0,-9.747357368469238,35.039674,0.0027925268031909274,5.0,0.0,1000.0,1500.0,0.4948002099990845,0.0,-5.454623222351074,1500.0,0.0,0.1310076117515564,35.078694,0.0,-0.00767944870877505,-3.0,0.0,0.0,0.0,-0.02757620218151041,444.0,0.0,749.7750778198242,0.015707963267948967,3.9257690865108454,0.006457718232379019,-0.29197049140930176,1572.0,-1.1935948133468628,-2.7911164,0.0,1494.0,1605.0,19.0,1418.0,0.0,1.2915524244308472,0.9411846995353699,1500.0,1.0,,,,,,,
16.399936999999994,-0.3808909058570862,6.2700000000000005,197.0,-14.0,7.7127556800842285,5.0,51.4593595,0.0,-9.743722915649414,35.159264,0.002617993877991494,5.0,0.0,1000.0,1500.0,0.5926727652549744,0.0,-5.454623222351074,1500.0,0.0,0.010302551090717316,35.178695999999995,0.0,-0.007504915783575617,-3.0,0.0,0.0,0.0,-0.02495820830351891,444.0,0.0,749.7750778198242,0.014486232791552936,3.9245473560344495,0.006457718232379019,-0.3685093820095062,1572.0,-1.180808424949646,-2.7911162999999997,0.0,1495.0,1605.0,19.0,1417.0,0.0,1.296278715133667,0.9367979764938354,1500.0,1.0,,,,,,,
16.499905999999996,-0.3733184337615967,6.2700000000000005,197.0,-14.0,7.7127556800842285,5.0,51.4593595,0.0,-9.734635353088379,35.239104,0.002617993877991494,5.0,0.0,1000.0,1500.0,0.33439794182777405,0.0,-5.454623222351074,1500.0,0.0,0.09712868928909302,35.278665,0.0,-0.007504915783575617,-3.0,0.0,0.0,0.0,-0.025656340004316644,444.0,0.0,749.7376403808594,0.013613568165555772,3.924023757258851,0.006283185307179586,-0.4059428572654724,1572.0,-1.1719430685043335,-2.7911162999999997,0.0,1495.0,1604.0,19.0,1418.0,0.0,1.2992314100265503,0.9228081703186035,1500.0,1.0,,,,,,,
16.599942,-0.3596290946006775,6.3100000000000005,197.0,-14.0,7.7127556800842285,5.0,51.4593595,0.0,-9.747597694396973,35.359609,0.002617993877991494,5.0,0.0,1000.0,1500.0,0.6334530115127563,0.0,-5.454623222351074,1500.0,0.0,0.021146800369024277,35.378701,0.0,-0.007330382858376184,-3.0,0.0,0.0,0.0,-0.023387411976724018,444.0,0.0,749.7750778198242,0.012566370614359171,3.922627493857256,0.006283185307179586,-0.47301217913627625,1571.0,-1.1556484699249268,-2.7911162999999997,0.0,1495.0,1605.0,19.0,1418.0,0.0,1.3027188777923584,0.9131192564964294,1500.0,1.0,,,,,,,
16.699936,-0.3511984646320343,6.3100000000000005,197.0,-14.0,7.7127556800842285,5.0,51.4593595,0.0,-9.734525680541992,35.439040999999996,0.0024434609527920616,5.0,0.0,1000.0,1500.0,0.5573298931121826,0.0,-5.454623222351074,1500.0,0.0,0.08393575251102448,35.478695,0.0,-0.007330382858376184,-3.0,0.0,0.0,0.0,-0.023911010752322315,444.0,0.0,749.7750778198242,0.011868238913561441,3.921929362156458,0.006283185307179586,-0.5061262845993042,1572.0,-1.1437292098999023,-2.7911162999999997,0.0,1494.0,1605.0,19.0,1418.0,0.0,1.298593521118164,0.8969476819038391,1500.0,1.0,,,,,,,
16.799934,-0.33717095851898193,6.3500000000000005,197.0,-14.0,7.719691753387451,5.0,51.4593595,0.0,-9.74120807647705,35.559959,0.0024434609527920616,5.0,0.0,1000.0,1500.0,0.5899540781974792,0.0,-5.454623222351074,1500.0,0.0,0.034354034811258316,35.578693,0.0,-0.007155849933176752,-3.0,0.0,0.0,0.0,-0.02181661564992912,444.0,0.0,749.7750778198242,0.01117010721276371,3.920707631680062,0.006108652381980154,-0.5646800398826599,1572.0,-1.1273747682571411,-2.7911162,0.0,1495.0,1604.0,19.0,1418.0,0.0,1.3009644746780396,0.8831355571746826,1500.0,1.0,,,,,,,
16.899966999999997,-0.32864880561828613,6.3500000000000005,197.0,-14.0,7.719691753387451,5.0,51.4593595,0.0,-9.735837936401367,35.639685,0.0024434609527920616,5.0,0.0,1000.0,1500.0,0.6035475134849548,0.0,-5.454623222351074,1500.0,0.0,0.07281339168548584,35.678726,0.0,-0.007155849933176752,-3.0,0.0,0.0,0.0,-0.022165681500327987,444.0,0.0,749.7376403808594,0.010471975511965976,3.920009499979264,0.006108652381980154,-0.5931919813156128,1572.0,-1.116132140159607,-2.7911162,0.0,1495.0,1604.0,19.0,1418.0,0.0,1.3035316467285156,0.8658802509307861,1500.0,1.0,,,,,,,
16.999953999999995,-0.315372496843338,6.36,197.0,-14.0,7.740499496459961,5.0,51.4593595,0.0,-9.74064826965332,35.759462,0.0022689280275926286,5.0,0.0,1000.0,1500.0,0.7177321314811707,0.0,-5.454623222351074,1500.0,0.0,0.033608317375183105,35.778712999999996,0.0,-0.006981317007977318,-3.0,0.0,0.0,0.0,-0.020245819323134222,444.0,0.0,749.7376403808594,0.009773843811168246,3.9186132365776687,0.006108652381980154,-0.6426407098770142,1572.0,-1.099829077720642,-2.7911159,0.0,1494.0,1605.0,19.0,1418.0,0.0,1.2920299768447876,0.8495737314224243,1500.0,1.0,,,,,,,
17.099880999999996,-0.3072950839996338,6.36,197.0,-14.0,7.740499496459961,5.0,51.4593595,0.0,-9.742091178894043,35.839085,0.0022689280275926286,5.0,0.0,1000.0,1500.0,0.5138309597969055,0.0,-5.454623222351074,1500.0,0.0,0.06026777625083923,35.87864,0.0,-0.006806784082777886,-3.0,0.0,0.0,0.0,-0.020245819323134222,444.0,0.0,749.456672668457,0.00942477796076938,3.9179151048768714,0.005934119456780721,-0.6672967672348022,1572.0,-1.0900681018829346,-2.7911159,0.0,1495.0,1605.0,19.0,1417.0,0.0,1.2980051040649414,0.8322470188140869,1501.0,1.0,,,,,,,
17.199939,-0.2941173017024994,6.37,197.0,-14.0,7.761307239532471,5.0,51.4593594,0.0,-9.725558280944824,35.959618,0.0020943951023931952,5.0,0.0,1000.0,1500.0,0.5790793299674988,0.0,-5.465755462646484,1500.0,0.0,0.044133469462394714,35.978698,0.0,-0.006806784082777886,-3.0,0.0,0.0,0.0,-0.018675022996339326,444.0,0.0,749.456672668457,0.00890117918517108,3.916693374400475,0.005934119456780721,-0.7098146080970764,1572.0,-1.0749458074569702,-2.7911156,0.0,1494.0,1605.0,18.0,1418.0,0.0,1.3067612648010254,0.8138463497161865,1500.0,1.0,,,,,,,
17.299934,-0.2849082350730896,6.37,197.0,-14.0,7.761307239532471,5.0,51.4593594,0.0,-9.724374771118164,36.039688999999996,0.0020943951023931952,5.0,0.0,1000.0,1500.0,0.4594573378562927,0.0,-5.465755462646484,1500.0,0.0,0.06615125387907028,36.078693,0.0,-0.0066322511575784525,-3.0,0.0,0.0,0.0,-0.018675022996339326,444.0,0.0,600.240119934082,0.008552113334772215,3.915820709774478,0.005934119456780721,-0.7295299768447876,1572.0,-1.0633569955825806,-2.7911156,0.0,1494.0,1605.0,18.0,1418.0,0.0,1.282850742340088,0.7954240441322327,1500.0,1.0,,,,,,,
17.399885999999995,-0.26981133222579956,6.37,197.0,-14.0,7.782114505767822,5.0,51.459359,0.0,-9.754148483276367,36.159431,0.0020943951023931952,5.0,0.0,1000.0,1501.0,0.6225782632827759,0.0,-5.51028299331665,1500.0,0.0,0.05826449394226074,36.178644999999996,0.0,-0.006457718232379019,-3.0,0.0,0.0,0.0,-0.01710422666954443,444.0,0.0,600.240119934082,0.00820304748437335,3.914424446372882,0.005934119456780721,-0.7646757364273071,1572.0,-1.0435280799865723,-2.7911153,0.0,1495.0,1605.0,18.0,1417.0,0.0,1.299018383026123,0.7759976387023926,1500.0,1.0,,,,,,,
17.499939999999995,-0.2606557607650757,6.37,197.0,-14.0,7.782114505767822,5.0,51.459359,0.0,-9.738809585571289,36.239079,0.0019198621771937625,5.0,0.0,1000.0,1500.0,0.4676133692264557,0.0,-5.51028299331665,1500.0,0.0,0.051154691725969315,36.278698999999996,0.0,-0.006457718232379019,-3.0,0.0,0.0,0.0,-0.01710422666954443,444.0,0.0,600.240119934082,0.008028514559173916,3.9135517817468854,0.005759586531581287,-0.7812315225601196,1571.0,-1.0295798778533936,-2.7911153,0.0,1495.0,1605.0,18.0,1418.0,0.0,1.294731855392456,0.7579228281974792,1500.0,1.0,,,,,,,
17.599903999999995,-0.24625490605831146,6.390000000000001,197.0,-14.0,7.80292272567749,5.0,51.4593588,0.0,-9.724431991577148,36.359418,0.0019198621771937625,5.0,0.0,1000.0,1500.0,0.5682046413421631,0.0,-5.532546520233154,1500.0,0.0,0.040666211396455765,36.378662999999996,0.0,-0.006283185307179586,-3.0,0.0,0.0,0.0,-0.015707963267948967,444.0,0.0,642.893913269043,0.00767944870877505,3.9119809854200907,0.005759586531581287,-0.8111304640769958,1572.0,-1.0076971054077148,-2.791115,0.0,1495.0,1604.0,18.0,1418.0,0.0,1.291479468345642,0.7379391193389893,1500.0,1.0,,,,,,,
17.699889999999996,-0.2363063097000122,6.390000000000001,197.0,-14.0,7.80292272567749,5.0,51.4593588,0.0,-9.735494613647461,36.43917,0.0017453292519943296,5.0,0.0,1000.0,1500.0,0.524705708026886,0.0,-5.532546520233154,1500.0,0.0,0.05247608572244644,36.478649,0.0,-0.006108652381980154,-3.0,0.0,0.0,0.0,-0.015533430342749533,444.0,0.0,642.893913269043,0.007504915783575617,3.911108320794093,0.005759586531581287,-0.8241540193557739,1572.0,-0.9922224879264832,-2.791115,0.0,1494.0,1605.0,18.0,1418.0,0.0,1.301902174949646,0.719727635383606,1500.0,1.0,,,,,,,
17.799912,-0.22199586033821106,6.43,197.0,-14.0,7.809858798980713,5.0,51.459358599999995,0.0,-9.73747444152832,36.559765999999996,0.0017453292519943296,5.0,0.0,1000.0,1500.0,0.5682046413421631,0.0,-5.554810523986816,1500.0,0.0,0.05753402039408684,36.578671,0.0,-0.005934119456780721,-3.0,0.0,0.0,0.0,-0.014311699866353503,444.0,0.0,642.893913269043,0.007330382858376184,3.9095375244672983,0.005585053606381855,-0.8481513261795044,1572.0,-0.9688647389411926,-2.7911148999999997,0.0,1495.0,1605.0,18.0,1417.0,0.0,1.2956266403198242,0.6984386444091797,1500.0,1.0,,,,,,,
17.899981999999994,-0.21305032074451447,6.43,197.0,-14.0,7.809858798980713,5.0,51.459358599999995,0.0,-9.731895446777344,36.639724,0.0015707963267948964,5.0,0.0,1000.0,1500.0,0.46217599511146545,0.0,-5.554810523986816,1501.0,0.0,0.047144319862127304,36.678740999999995,0.0,-0.005759586531581287,-3.0,0.0,0.0,0.0,-0.014137166941154071,444.0,0.0,642.659782409668,0.007155849933176752,3.9083157939909023,0.005585053606381855,-0.8583337068557739,1572.0,-0.9532207250595093,-2.7911148999999997,0.0,1495.0,1605.0,18.0,1417.0,0.0,1.3028223514556885,0.6805514693260193,1500.0,1.0,,,,,,,
17.999961999999996,-0.19930574297904968,6.49,197.0,-14.0,7.809858798980713,5.0,51.4593585,0.0,-9.727875709533691,36.759375999999996,0.0015707963267948964,5.0,0.0,1000.0,1500.0,0.5763606429100037,0.0,-5.565942287445068,1500.0,0.0,0.059549104422330856,36.778721,0.0,-0.005585053606381855,-3.0,0.0,0.0,0.0,-0.012915436464758038,444.0,0.0,642.893913269043,0.006981317007977318,3.906744997664107,0.005585053606381855,-0.8778032064437866,1572.0,-0.9289787411689758,-2.7911148999999997,0.0,1494.0,1605.0,18.0,1418.0,0.0,1.2980866432189941,0.6597226858139038,1500.0,1.0,,,,,,,
18.099891,-0.19016972184181213,6.49,197.0,-14.0,7.809858798980713,5.0,51.4593585,0.0,-9.733686447143555,36.839076999999996,0.0013962634015954637,5.0,0.0,1000.0,1500.0,0.5029562711715698,0.0,-5.565942287445068,1500.0,0.0,0.044467221945524216,36.87865,0.0,-0.0054105206811824215,-3.0,0.0,0.0,0.0,-0.012566370614359171,444.0,0.0,642.893913269043,0.006806784082777886,3.9055232671877116,0.0054105206811824215,-0.8860005736351013,1572.0,-0.9126355051994324,-2.7911148999999997,0.0,1494.0,1605.0,18.0,1418.0,0.0,1.2999043464660645,0.6420024037361145,1500.0,1.0,,,,,,,
18.199954999999996,-0.17641958594322205,6.5200000000000005,197.0,-14.0,7.830666542053223,5.0,51.4593584,0.0,-9.734109878540039,36.959432,0.0013962634015954637,5.0,0.0,1000.0,1500.0,0.47576943039894104,0.0,-5.57707405090332,1500.0,0.0,0.06826070696115494,36.978714,0.0,-0.005235987755982988,-3.0,0.0,0.0,0.0,-0.011344640137963142,444.0,0.0,643.1144256591797,0.0066322511575784525,3.9037779379357174,0.0054105206811824215,-0.9010235667228699,1572.0,-0.8884032368659973,-2.7911146,0.0,1495.0,1605.0,18.0,1417.0,0.0,1.2971525192260742,0.6202546954154968,1501.0,1.0,,,,,,,
18.299903999999998,-0.16816112399101257,6.5200000000000005,197.0,-14.0,7.830666542053223,5.0,51.4593584,0.0,-9.734970092773438,37.039721,0.0012217304763960308,5.0,0.0,1000.0,1500.0,0.46489468216896057,0.0,-5.57707405090332,1500.0,0.0,0.042368046939373016,37.078663,0.0,-0.005061454830783556,-3.0,0.0,0.0,0.0,-0.010995574287564275,444.0,0.0,642.893913269043,0.0066322511575784525,3.902556207459321,0.0054105206811824215,-0.9067880511283875,1572.0,-0.8716351389884949,-2.7911146,0.0,1495.0,1604.0,18.0,1418.0,0.0,1.2991164922714233,0.6027133464813232,1500.0,1.0,,,,,,,
18.399943,-0.1544172167778015,6.55,197.0,-14.0,7.851474285125732,5.0,51.4593584,0.0,-9.736048698425293,37.15962,0.0012217304763960308,5.0,0.0,1000.0,1500.0,0.524705708026886,0.0,-5.57707405090332,1500.0,0.0,0.057795919477939606,37.178702,0.0,-0.004886921905584123,-3.0,0.0,0.0,0.0,-0.009948376736367679,444.0,0.0,643.0730895996094,0.006457718232379019,3.9006363452821273,0.005235987755982988,-0.9188902974128723,1572.0,-0.8459012508392334,-2.7911143,0.0,1494.0,1605.0,18.0,1418.0,0.0,1.2857718467712402,0.5812744498252869,1500.0,1.0,,,,,,,
18.499896,-0.14622989296913147,6.55,197.0,-14.0,7.851474285125732,5.0,51.4593584,0.0,-9.740852355957031,37.23908,0.0010471975511965976,5.0,0.0,1000.0,1500.0,0.5355804562568665,0.0,-5.57707405090332,1500.0,0.0,0.038741134107112885,37.278655,0.0,-0.00471238898038469,-3.0,0.0,0.0,0.0,-0.009599310885968814,444.0,0.0,643.0730895996094,0.006457718232379019,3.8992400818805315,0.005235987755982988,-0.9225992560386658,1572.0,-0.8288890719413757,-2.7911143,0.0,1494.0,1605.0,18.0,1418.0,0.0,1.288008213043213,0.5642556548118591,1500.0,1.0,,,,,,,
18.599914999999996,-0.13444404304027557,6.55,197.0,-14.0,7.8722825050354,5.0,51.4593584,0.0,-9.739434242248535,37.359505999999996,0.0008726646259971648,5.0,0.0,1000.0,1500.0,0.3969276249408722,0.0,-5.57707405090332,1500.0,0.0,0.06766361743211746,37.378674,0.0,-0.004537856055185257,-3.0,0.0,0.0,0.0,-0.008552113334772215,444.0,0.0,749.4753646850586,0.006457718232379019,3.8971456867781384,0.005235987755982988,-0.9304116368293762,1572.0,-0.8048521280288696,-2.791114,0.0,1495.0,1605.0,18.0,1417.0,0.0,1.285548448562622,0.5428880453109741,1500.0,1.0,,,,,,,
18.699939999999998,-0.12675650417804718,6.55,197.0,-14.0,7.8722825050354,5.0,51.4593584,0.0,-9.74063491821289,37.439084,0.0008726646259971648,5.0,0.0,1000.0,1500.0,0.44858258962631226,0.0,-5.57707405090332,1500.0,0.0,0.05079752579331398,37.478699,0.0,-0.004363323129985824,-3.0,0.0,0.0,0.0,-0.008028514559173916,444.0,0.0,643.0730895996094,0.006457718232379019,3.895749423376543,0.005061454830783556,-0.9321187138557434,1572.0,-0.7885223627090454,-2.791114,0.0,1495.0,1605.0,18.0,1417.0,0.0,1.3068245649337769,0.5261597633361816,1500.0,1.0,,,,,,,
18.799926,-0.11535381525754929,6.61,197.0,-14.0,7.8861541748046875,5.0,51.4593582,0.0,-9.738800048828125,37.559739,0.0006981317007977319,5.0,0.0,1000.0,1500.0,0.5899540781974792,0.0,-5.599338054656982,1500.0,0.0,0.06367884576320648,37.578685,0.0,-0.0041887902047863905,-3.0,0.0,0.0,0.0,-0.006981317007977318,444.0,0.0,643.0730895996094,0.006283185307179586,3.8934804953489506,0.005061454830783556,-0.9367408156394958,1572.0,-0.7632836699485779,-2.7911137999999998,0.0,1494.0,1605.0,18.0,1418.0,0.0,1.2831764221191406,0.5039981603622437,1500.0,1.0,,,,,,,
18.899918,-0.10830660164356232,6.61,197.0,-14.0,7.8861541748046875,5.0,51.4593582,0.0,-9.741643905639648,37.639677,0.0005235987755982988,5.0,0.0,1000.0,1500.0,0.5899540781974792,0.0,-5.599338054656982,1500.0,0.0,0.03351714462041855,37.678677,0.0,-0.004014257279586958,-3.0,0.0,0.0,0.0,-0.006457718232379019,444.0,0.0,642.893913269043,0.006283185307179586,3.8919096990221558,0.005061454830783556,-0.9367308020591736,1571.0,-0.7479340434074402,-2.7911137999999998,0.0,1495.0,1605.0,18.0,1418.0,0.0,1.3041565418243408,0.4874545931816101,1500.0,1.0,,,,,,,
18.999983,-0.09942829608917236,6.66,197.0,-14.0,7.900025844573975,5.0,51.459357999999995,0.0,-9.725653648376465,37.759402,0.0005235987755982988,5.0,0.0,1000.0,1500.0,0.4812067747116089,0.0,-5.621601581573486,1500.0,0.0,0.08221322298049927,37.778742,0.0,-0.003839724354387525,-3.0,0.0,0.0,0.0,-0.0054105206811824215,444.0,0.0,643.0730895996094,0.006283185307179586,3.889640770994563,0.004886921905584123,-0.9387248158454895,1572.0,-0.7284274101257324,-2.7911136,0.0,1495.0,1604.0,18.0,1418.0,0.0,1.3042573928833008,0.4647170603275299,1500.0,1.0,,,,,,,
19.099911999999996,-0.09437930583953857,6.66,197.0,-14.0,7.900025844573975,5.0,51.459357999999995,0.0,-9.73498249053955,37.839096999999995,0.00034906585039886593,5.0,0.0,1000.0,1500.0,0.6388903856277466,0.0,-5.621601581573486,1500.0,0.0,0.0352386049926281,37.878671,0.0,-0.003490658503988659,-3.0,0.0,0.0,0.0,-0.00471238898038469,444.0,0.0,643.0730895996094,0.006283185307179586,3.888069974667768,0.004886921905584123,-0.9369035959243774,1572.0,-0.7163527011871338,-2.7911136,0.0,1495.0,1604.0,18.0,1418.0,0.0,1.2947001457214355,0.4477043151855469,1500.0,1.0,,,,,,,
19.199946999999995,-0.0872536301612854,6.7,197.0,-14.0,7.906961917877197,5.0,51.4593579,0.0,-9.731499671936035,37.959407,0.00017453292519943296,5.0,0.0,1000.0,1500.0,0.5192683339118958,0.0,-5.632733345031738,1500.0,0.0,0.06955581158399582,37.978705999999995,0.0,-0.0033161255787892262,-3.0,0.0,0.0,0.0,-0.003665191429188092,444.0,0.0,750.0000228881836,0.006283185307179586,3.8858010466401756,0.00471238898038469,-0.9363418817520142,1572.0,-0.7004815340042114,-2.7911135,0.0,1494.0,1605.0,18.0,1418.0,0.0,1.289056420326233,0.4254934787750244,1500.0,1.0,,,,,,,
19.299917999999998,-0.08304999768733978,6.7,197.0,-14.0,7.906961917877197,5.0,51.4593579,0.0,-9.735706329345703,38.03964,0.0,5.0,0.0,1000.0,1500.0,0.6225782632827759,0.0,-5.632733345031738,1500.0,0.0,0.04486256465315819,38.078677,0.0,-0.003141592653589793,-3.0,0.0,0.0,0.0,-0.0029670597283903604,444.0,0.0,643.0730895996094,0.006283185307179586,3.884055717388181,0.00471238898038469,-0.9332480430603027,1572.0,-0.691295862197876,-2.7911135,0.0,1494.0,1605.0,18.0,1418.0,0.0,1.3016730546951294,0.4092894196510315,1500.0,1.0,,,,,,,
19.399944999999995,-0.07730410248041153,6.76,197.0,-14.0,7.906961917877197,5.0,51.4593578,0.0,-9.72222900390625,38.159352999999996,0.0,5.0,0.0,1000.0,1500.0,0.4866441488265991,0.0,-5.643865585327148,1500.0,0.0,0.07157709449529648,38.178703999999996,0.0,-0.0027925268031909274,-3.0,0.0,0.0,0.0,-0.0019198621771937625,444.0,0.0,750.0000228881836,0.006457718232379019,3.881612256435389,0.00471238898038469,-0.9293597340583801,1572.0,-0.6794137954711914,-2.7911135,0.0,1495.0,1604.0,18.0,1418.0,0.0,1.2971761226654053,0.3859829008579254,1500.0,1.0,,,,,,,
19.499905999999996,-0.0740603506565094,6.76,197.0,-14.0,7.906961917877197,5.0,51.4593578,0.0,-9.74661636352539,38.239162,-0.00017453292519943296,5.0,0.0,1000.0,1500.0,0.5709233283996582,0.0,-5.643865585327148,1500.0,0.0,0.03735707327723503,38.278665,0.0,-0.002617993877991494,-3.0,0.0,0.0,0.0,-0.0010471975511965976,444.0,0.0,749.9437866210938,0.006457718232379019,3.8798669271833948,0.004537856055185257,-0.9246549606323242,1572.0,-0.6721895337104797,-2.7911135,0.0,1494.0,1605.0,18.0,1418.0,0.0,1.2973965406417847,0.3693867325782776,1500.0,1.0,,,,,,,
19.599807,-0.0702105388045311,6.8100000000000005,197.0,-14.0,7.920833587646484,5.0,51.4593576,0.0,-9.741447448730469,38.359103999999995,-0.00017453292519943296,5.0,0.0,1000.0,1500.0,0.44858258962631226,0.0,-5.666129112243652,1501.0,0.0,0.06490542739629745,38.378566,0.0,-0.0024434609527920616,-3.0,0.0,0.0,0.0,0.0,444.0,0.0,749.9437866210938,0.006457718232379019,3.877074400380204,0.004537856055185257,-0.9185234308242798,1572.0,-0.6622291207313538,-2.7911132999999997,0.0,1495.0,1605.0,18.0,1417.0,0.0,1.2896409034729004,0.34634605050086975,1500.0,1.0,,,,,,,
19.699939,-0.06815711408853531,6.8100000000000005,197.0,-14.0,7.920833587646484,5.0,51.4593576,0.0,-9.72516918182373,38.439074999999995,-0.00034906585039886593,5.0,0.0,1000.0,1501.0,0.483925461769104,0.0,-5.666129112243652,1500.0,0.0,0.04011223092675209,38.478698,0.0,-0.0020943951023931952,-3.0,0.0,0.0,0.0,0.0006981317007977319,444.0,0.0,749.6064758300781,0.006457718232379019,3.8753290711282093,0.004363323129985824,-0.9125149846076965,1572.0,-0.6557848453521729,-2.7911132999999997,0.0,1495.0,1605.0,18.0,1417.0,0.0,1.2930526733398438,0.3302669823169708,1500.0,1.0,,,,,,,
19.799934999999998,-0.06429724395275116,6.8500000000000005,197.0,-14.0,7.9347052574157715,5.0,51.459357499999996,0.0,-9.741270065307617,38.559777,-0.0005235987755982988,5.0,0.0,1000.0,1500.0,0.584516704082489,0.0,-5.677260875701904,1500.0,0.0,0.06907197088003159,38.578694,0.0,-0.0019198621771937625,-3.0,0.0,0.0,0.0,0.0017453292519943296,444.0,0.0,749.6064758300781,0.0066322511575784525,3.872362011399819,0.004363323129985824,-0.9039490818977356,1572.0,-0.6459823250770569,-2.7911131,0.0,1494.0,1605.0,18.0,1418.0,0.0,1.299285888671875,0.3061380982398987,1500.0,1.0,,,,,,,
19.899957999999998,-0.06270860135555267,6.8500000000000005,197.0,-14.0,7.9347052574157715,5.0,51.459357499999996,0.0,-9.751768112182617,38.639694999999996,-0.0006981317007977319,5.0,0.0,1000.0,1500.0,0.6225782632827759,0.0,-5.677260875701904,1500.0,0.0,0.05252280831336975,38.678717,0.0,-0.0017453292519943296,-3.0,0.0,0.0,0.0,0.002617993877991494,444.0,0.0,749.5877838134766,0.0066322511575784525,3.870442149222625,0.0041887902047863905,-0.8970470428466797,1572.0,-0.640753448009491,-2.7911131,0.0,1495.0,1604.0,18.0,1418.0,0.0,1.2924302816390991,0.28942573070526123,1500.0,1.0,,,,,,,
19.999910999999997,-0.06119820103049278,6.91,197.0,-14.0,7.948576927185059,5.0,51.4593573,0.0,-9.728693008422852,38.759259,-0.0008726646259971648,5.0,0.0,1000.0,1501.0,0.5709233283996582,0.0,-5.699524879455566,1500.0,0.0,0.07027172297239304,38.77867,0.0,-0.0013962634015954637,-3.0,0.0,0.0,0.0,0.003839724354387525,444.0,0.0,749.5877838134766,0.006806784082777886,3.8673005565690355,0.0041887902047863905,-0.885684609413147,1572.0,-0.6361891627311707,-2.7911129,0.0,1495.0,1605.0,18.0,1417.0,0.0,1.3082338571548462,0.265022337436676,1500.0,1.0,,,,,,,
20.099928999999996,-0.06052796170115471,6.91,197.0,-14.0,7.948576927185059,5.0,51.4593573,0.0,-9.730690956115723,38.839068,-0.0010471975511965976,5.0,0.0,1000.0,1500.0,0.6144222021102905,0.0,-5.699524879455566,1500.0,0.0,0.050338901579380035,38.878688,0.0,-0.0012217304763960308,-3.0,0.0,0.0,0.0,0.00471238898038469,444.0,0.0,643.0868682861328,0.006806784082777886,3.8652061614666424,0.0041887902047863905,-0.87665855884552,1572.0,-0.634823739528656,-2.7911129,0.0,1495.0,1605.0,18.0,1417.0,0.0,1.294475793838501,0.24781480431556702,1500.0,1.0,,,,,,,
20.199943999999995,-0.06086196005344391,6.95,197.0,-14.0,7.962449550628662,5.0,51.4593572,0.0,-9.733640670776367,38.959289,-0.0012217304763960308,5.0,0.0,1000.0,1500.0,0.5709233283996582,0.0,-5.710656642913818,1500.0,0.0,0.053479280322790146,38.978702999999996,0.0,-0.0008726646259971648,-3.0,0.0,0.0,0.0,0.006108652381980154,444.0,0.0,749.5877838134766,0.006981317007977318,3.862239101738252,0.004014257279586958,-0.8641293048858643,1572.0,-0.6349104046821594,-2.7911127,0.0,1494.0,1605.0,18.0,1418.0,0.0,1.28895103931427,0.22353754937648773,1500.0,1.0,,,,,,,
20.299876999999995,-0.06155025586485863,6.95,197.0,-14.0,7.962449550628662,5.0,51.4593572,0.0,-9.732672691345215,39.039722,-0.0013962634015954637,5.0,0.0,1000.0,1500.0,0.5627672672271729,0.0,-5.710656642913818,1500.0,0.0,0.04372434690594673,39.078635999999996,0.0,-0.0006981317007977319,-3.0,0.0,0.0,0.0,0.006981317007977318,444.0,0.0,749.5315475463867,0.006981317007977318,3.8601447066358587,0.004014257279586958,-0.854720413684845,1572.0,-0.6361399292945862,-2.7911127,0.0,1494.0,1605.0,18.0,1418.0,0.0,1.298525333404541,0.20639459788799286,1500.0,1.0,,,,,,,
20.399994999999997,-0.06259650737047195,6.97,197.0,-14.0,7.983257293701172,5.0,51.4593571,0.0,-9.738058090209961,39.159468,-0.0015707963267948964,5.0,0.0,1000.0,1500.0,0.5518925189971924,0.0,-5.7217888832092285,1500.0,0.0,0.06732089817523956,39.178754,0.0,-0.00034906585039886593,-3.0,0.0,0.0,0.0,0.008377580409572781,444.0,0.0,749.5315475463867,0.007155849933176752,3.8568285810570697,0.003839724354387525,-0.8401830792427063,1572.0,-0.6390780806541443,-2.7911124,0.0,1495.0,1605.0,18.0,1417.0,0.0,1.292554497718811,0.18134929239749908,1500.0,1.0,,,,,,,
20.499952,-0.06362361460924149,6.97,197.0,-14.0,7.983257293701172,5.0,51.4593571,0.0,-9.731721878051758,39.239156,-0.0017453292519943296,5.0,0.0,1000.0,1500.0,0.5491738319396973,0.0,-5.7217888832092285,1501.0,0.0,0.052581727504730225,39.278711,0.0,-0.00017453292519943296,-3.0,0.0,0.0,0.0,0.00942477796076938,444.0,0.0,749.5315475463867,0.007155849933176752,3.8547341859546767,0.003839724354387525,-0.82872474193573,1572.0,-0.6415632963180542,-2.7911124,0.0,1495.0,1605.0,18.0,1417.0,0.0,1.2900749444961548,0.1639171540737152,1500.0,1.0,,,,,,,
20.599954999999994,-0.06559879332780838,6.98,197.0,-14.0,7.997128963470459,5.0,51.459356899999996,0.0,-9.735587120056152,39.359274,-0.0019198621771937625,5.0,0.0,1000.0,1500.0,0.5328617691993713,0.0,-5.744052410125732,1500.0,0.0,0.06810039281845093,39.378713999999995,0.0,0.0,-3.0,0.0,0.0,0.0,0.010821041362364843,444.0,0.0,749.5315475463867,0.007330382858376184,3.8512435274506873,0.003665191429188092,-0.8119081854820251,1572.0,-0.6460935473442078,-2.7911121999999997,0.0,1494.0,1605.0,18.0,1418.0,0.0,1.2945530414581299,0.13906650245189667,1500.0,1.0,,,,,,,
20.699858999999996,-0.06686951965093613,6.98,197.0,-14.0,7.997128963470459,5.0,51.459356899999996,0.0,-9.734601974487305,39.439169,-0.0020943951023931952,5.0,0.0,1000.0,1500.0,0.6796705722808838,0.0,-5.744052410125732,1500.0,0.0,0.04197419807314873,39.478618,0.0,0.00017453292519943296,-3.0,0.0,0.0,0.0,0.011693705988362009,444.0,0.0,643.0868682861328,0.007504915783575617,3.8491491323482943,0.003665191429188092,-0.8000373244285583,1572.0,-0.6495401859283447,-2.7911121999999997,0.0,1494.0,1605.0,18.0,1418.0,0.0,1.283733606338501,0.12158834934234619,1500.0,1.0,,,,,,,
20.799937,-0.06989052891731262,6.99,197.0,-14.0,8.011000633239746,5.0,51.459356799999995,0.0,-9.73379135131836,39.559773,-0.0022689280275926286,5.0,0.0,1000.0,1500.0,0.5491738319396973,0.0,-5.755184173583984,1500.0,0.0,0.044742561876773834,39.578696,0.0,0.00034906585039886593,-3.0,0.0,0.0,0.0,0.013089969389957472,444.0,0.0,749.5315475463867,0.00767944870877505,3.845658473844306,0.003490658503988659,-0.7821457982063293,1572.0,-0.6570846438407898,-2.791112,0.0,1495.0,1604.0,18.0,1418.0,0.0,1.3027881383895874,0.09629274904727936,1500.0,1.0,,,,,,,
20.899992999999995,-0.07259754836559296,6.99,197.0,-14.0,8.011000633239746,5.0,51.459356799999995,0.0,-9.732274055480957,39.639728999999996,-0.0024434609527920616,5.0,0.0,1000.0,1500.0,0.5219870209693909,0.0,-5.755184173583984,1500.0,0.0,0.04405685141682625,39.678751999999996,0.0,0.0006981317007977319,-3.0,0.0,0.0,0.0,0.014137166941154071,444.0,0.0,749.5315475463867,0.007853981633974483,3.8433895458167133,0.003490658503988659,-0.7694974541664124,1572.0,-0.6633487343788147,-2.791112,0.0,1495.0,1604.0,18.0,1418.0,0.0,1.3014991283416748,0.07899797707796097,1500.0,1.0,,,,,,,
20.999983,-0.07619373500347137,7.0,197.0,-14.0,8.017936706542969,5.0,51.4593566,0.0,-9.729227066040039,39.759267,-0.002617993877991494,5.0,0.0,1000.0,1500.0,0.5709233283996582,0.0,-5.7774481773376465,1500.0,0.0,0.04517455771565437,39.778742,0.0,0.0008726646259971648,-3.0,0.0,0.0,0.0,0.015533430342749533,444.0,0.0,749.5315475463867,0.008028514559173916,3.8398988873127244,0.0033161255787892262,-0.7498573064804077,1572.0,-0.6726599931716919,-2.7911118999999998,0.0,1494.0,1605.0,18.0,1418.0,0.0,1.2988150119781494,0.05300940200686455,1500.0,1.0,,,,,,,
21.099734999999995,-0.07882384955883026,7.0,197.0,-14.0,8.017936706542969,5.0,51.4593566,0.0,-9.737401962280273,39.839009,-0.002617993877991494,5.0,0.0,1000.0,1500.0,0.584516704082489,0.0,-5.7774481773376465,1500.0,0.0,0.0422377847135067,39.878493999999996,0.0,0.0010471975511965976,-3.0,0.0,0.0,0.0,0.016580627893946133,444.0,0.0,749.5315475463867,0.00820304748437335,3.8376299592851315,0.0033161255787892262,-0.7363947033882141,1572.0,-0.6791634559631348,-2.7911118999999998,0.0,1494.0,1605.0,18.0,1418.0,0.0,1.2978172302246094,0.03588850051164627,1500.0,1.0,,,,,,,
21.199937999999996,-0.08318322896957397,7.01,197.0,-14.0,8.031808853149414,5.0,51.4593564,0.0,-9.74063491821289,39.959281,-0.0027925268031909274,5.0,0.0,1000.0,1500.0,0.5926727652549744,0.0,-5.79971170425415,1500.0,0.0,0.04646526649594307,39.978697,0.0,0.0013962634015954637,-3.0,0.0,0.0,0.0,0.01815142422074103,444.0,0.0,754.9828872680664,0.008377580409572781,3.834139300781143,0.0033161255787892262,-0.7155152559280396,1572.0,-0.6901763081550598,-2.7911117,0.0,1495.0,1605.0,18.0,1417.0,0.0,1.3023074865341187,0.010319527238607407,1500.0,1.0,,,,,,,
21.299895,-0.08666040003299713,7.01,197.0,-14.0,8.031808853149414,5.0,51.4593564,0.0,-9.72805404663086,40.039727,-0.0029670597283903604,5.0,0.0,1000.0,1500.0,0.5817980170249939,0.0,-5.79971170425415,1500.0,0.0,0.049905817955732346,40.078654,0.0,0.0015707963267948964,-3.0,0.0,0.0,0.0,0.019198621771937627,444.0,0.0,749.5315475463867,0.008552113334772215,3.8318703727535506,0.003141592653589793,-0.701709508895874,1572.0,-0.6984018683433533,-2.7911117,0.0,1494.0,1605.0,18.0,1418.0,0.0,1.297023057937622,-0.007295365910977125,1500.0,1.0,,,,,,,
21.399941999999996,-0.09182589501142502,7.01,197.0,-14.0,8.045680046081543,5.0,51.459356199999995,0.0,-9.726012229919434,40.159411,-0.003141592653589793,5.0,0.0,1000.0,1501.0,0.47576943039894104,0.0,-5.8219757080078125,1500.0,0.0,0.052918463945388794,40.178701,0.0,0.0017453292519943296,-3.0,0.0,0.0,0.0,0.020594885173533087,444.0,0.0,749.5315475463867,0.008726646259971648,3.8283797142495617,0.003141592653589793,-0.6802806258201599,1572.0,-0.7119003534317017,-2.7911115,0.0,1495.0,1605.0,18.0,1417.0,0.0,1.2888927459716797,-0.03380186855792999,1500.0,1.0,,,,,,,
21.499924,-0.09499248117208481,7.01,197.0,-14.0,8.045680046081543,5.0,51.459356199999995,0.0,-9.737046241760254,40.239028,-0.0033161255787892262,5.0,0.0,1001.0,1500.0,0.5410177707672119,0.0,-5.8219757080078125,1500.0,0.0,0.03601541742682457,40.278683,0.0,0.0019198621771937625,-3.0,0.0,0.0,0.0,0.021642082724729686,444.0,0.0,746.6587448120117,0.00890117918517108,3.826110786221969,0.0029670597283903604,-0.6660664081573486,1571.0,-0.7204703688621521,-2.7911115,0.0,1495.0,1605.0,18.0,1418.0,0.0,1.2890551090240479,-0.05095827579498291,1500.0,1.0,,,,,,,
21.599944999999998,-0.09986988455057144,7.0200000000000005,197.0,-14.0,8.059552192687988,5.0,51.4593561,0.0,-9.73762035369873,40.359424,-0.003490658503988659,5.0,0.0,1000.0,1500.0,0.44858258962631226,0.0,-5.8331074714660645,1500.0,0.0,0.04898255318403244,40.378704,0.0,0.0020943951023931952,-3.0,0.0,0.0,0.0,0.023212879051524585,444.0,0.0,746.6587448120117,0.009075712110370514,3.8226201277179808,0.0029670597283903604,-0.6441051363945007,1572.0,-0.7328891158103943,-2.7911113,0.0,1495.0,1604.0,18.0,1418.0,0.0,1.2960842847824097,-0.07638479769229889,1500.0,1.0,,,,,,,
