time_index,tx_controls_1,servos_1,tx_controls_4,tx_controls_3,position_z,tx_controls_2,altitude_gps,velocity_x,global_position_longitude,velocity_y,wind_x,altitude_baro,axis_rate_yaw,tx_controls_7,axis_rate_pitch,axis_rate_roll,servos_6,servos_0,servos_7,wind_y,velocity_z,servos_5,mode_0,acceleration_y,position_x,mode_2,tx_controls_0,airspeed_0,servos_3,acceleration_z,tx_controls_5,position_y,global_position_latitude,attitude_pitch,acceleration_x,rpm_0,time_actual,mode_1,magnetometer_1,servos_4,tx_controls_6,attitude_roll,time_flight,magnetometer_0,gps_sat_count_0,magnetometer_2,servos_2,attitude_yaw,rpm_1,battery_0,current_3,current_2,current_1,battery_1,airspeed_1,current_0
0.0,1572.0,0.0,1417.0,1608.0,-0.6037100553512573,1494.0,7.38,-0.049974311143159866,-2.7913538,-0.061869360506534576,0.0,0.6635042428970337,0.0,1501.0,0.0,0.0,0.0,0.0,0.0,0.0,0.0318978987634182,0.0,5.0,-0.1960616111755371,0.0,1.0,1000.0,0.0,0.0,-9.737326622009277,1500.0,0.0,51.4594082,0.02181661564992912,1.0847508907318115,750.13134765625,35.694088,5.0,-2.0,0.0,1500.0,0.06440264939859076,35.733288,173.0,11.0,458.0,0.0,2.6007151183967503,-14.0,,,,,,,
0.09962099999999907,1572.0,0.0,1418.0,1608.0,-0.6075297594070435,1494.0,7.38,-0.05079643428325653,-2.7913538,-0.06131898984313011,0.0,0.6554127335548401,0.0,1500.0,0.0,0.0,0.0,0.0,0.0,0.0,0.0284882839769125,0.0,5.0,-0.19454863667488098,0.0,1.0,1000.0,0.0,0.0,-9.758285522460938,1500.0,0.0,51.4594082,0.02181661564992912,1.0764366388320923,750.1688385009766,35.813607999999995,5.0,-2.0,0.0,1500.0,0.06300638599699529,35.832909,173.0,11.0,458.0,0.0,2.6019368488731467,-14.0,,,,,,,
0.19997199999999538,1572.0,0.0,1418.0,1607.0,-0.6104916334152222,1495.0,7.33,-0.04355384781956673,-2.7913535,-0.049355268478393555,0.0,0.6769900918006897,0.0,1500.0,0.0,0.0,0.0,0.0,0.0,0.0,0.026399537920951843,0.0,5.0,-0.18812254071235657,0.0,1.0,1000.0,0.0,0.0,-9.741531372070312,1500.0,0.0,51.4594082,0.02181661564992912,1.0865851640701294,750.13134765625,35.893332,5.0,-2.0,0.0,1500.0,0.0635299847725936,35.93326,173.0,11.0,458.0,0.0,2.602460447648745,-14.0,,,,,,,
0.2996079999999992,1572.0,0.0,1418.0,1607.0,-0.6154568791389465,1495.0,7.33,-0.0441415011882782,-2.7913535,-0.04980425536632538,0.0,0.6662014126777649,0.0,1500.0,0.0,0.0,0.0,0.0,0.0,0.0,0.022727321833372116,0.0,5.0,-0.19110526144504547,0.0,1.0,1000.0,0.0,0.0,-9.736470222473145,1500.0,0.0,51.4594082,0.02181661564992912,1.0847114324569702,750.13134765625,36.013556,5.0,-2.0,0.0,1500.0,0.062482787221396996,36.032896,173.0,11.0,458.0,0.0,2.603682178125141,-14.0,,,,,,,
0.3998979999999932,1572.0,0.0,1417.0,1608.0,-0.6190841794013977,1494.0,7.23,-0.03850574046373367,-2.7913533,-0.03979058563709259,0.0,0.5691032409667969,-0.00017453292519943296,1500.0,0.0,0.0,0.0,0.0,0.0,0.0,0.02076852321624756,0.0,5.0,-0.17858365178108215,0.0,1.0,1000.0,0.0,0.0,-9.744379997253418,1501.0,0.0,51.4594077,0.02181661564992912,1.0818679332733154,750.0750579833984,36.093727,5.0,-2.0,0.0,1500.0,0.06300638599699529,36.133185999999995,173.0,11.0,458.0,0.0,2.604205776900739,-14.0,,,,,,,
0.4996769999999984,1572.0,0.0,1418.0,1608.0,-0.6227844953536987,1494.0,7.23,-0.03902954235672951,-2.7913533,-0.04054192081093788,0.0,0.6823844313621521,-0.00017453292519943296,1500.0,0.0,0.0,0.0,0.0,0.0,0.0,0.0177494864910841,0.0,5.0,-0.2006782591342926,0.0,1.0,1000.0,0.0,0.0,-9.747278213500977,1500.0,0.0,51.4594077,0.02181661564992912,1.1029553413391113,750.13134765625,36.213564,5.0,-2.0,0.0,1500.0,0.06230825429619757,36.232965,173.0,11.0,458.0,0.0,2.6052529744519357,-14.0,,,,,,,
0.5999020000000002,1572.0,0.0,1418.0,1608.0,-0.6247889399528503,1494.0,7.12,-0.034715671092271805,-2.7913531,-0.03200838714838028,0.0,0.7309334874153137,-0.00034906585039886593,1500.0,0.0,0.0,0.0,0.0,0.0,0.0,0.01621199958026409,0.0,5.0,-0.17934063076972961,0.0,1.0,1000.0,0.0,0.0,-9.736202239990234,1500.0,0.0,51.459407,0.021642082724729686,1.1049972772598267,750.0750579833984,36.293707,5.0,-2.0,0.0,1500.0,0.06265732014659643,36.33319,173.0,11.0,458.0,0.0,2.6057765732275344,-14.0,,,,,,,
0.6996349999999936,1572.0,0.0,1418.0,1608.0,-0.6298081278800964,1494.0,7.12,-0.03684736788272858,-2.7913531,-0.03301334008574486,0.0,0.6850816011428833,-0.00034906585039886593,1500.0,0.0,0.0,0.0,0.0,0.0,0.0,0.013460593298077583,0.0,5.0,-0.19733458757400513,0.0,1.0,1000.0,0.0,0.0,-9.742897987365723,1500.0,0.0,51.459407,0.021642082724729686,1.0791938304901123,750.0750579833984,36.413595,5.0,-2.0,0.0,1500.0,0.06213372137099813,36.432922999999995,173.0,11.0,458.0,0.0,2.606823770778731,-14.0,,,,,,,
0.799982,1572.0,0.0,1418.0,1607.0,-0.63400799036026,1495.0,7.04,-0.033010344952344894,-2.7913528,-0.026782602071762085,0.0,0.7039617896080017,-0.0005235987755982988,1500.0,0.0,0.0,0.0,0.0,0.0,0.0,0.011529479175806046,0.0,5.0,-0.16749030351638794,0.0,1.0,1000.0,0.0,0.0,-9.739692687988281,1500.0,0.0,51.4594064,0.021642082724729686,1.0904885530471802,750.0375137329102,36.493333,5.0,-2.0,0.0,1500.0,0.062482787221396996,36.53327,173.0,11.0,458.0,0.0,2.607347369554329,-14.0,,,,,,,
0.899719999999995,1571.0,0.0,1417.0,1608.0,-0.6406922936439514,1495.0,7.04,-0.033969420939683914,-2.7913528,-0.027911627665162086,0.0,0.6419268250465393,-0.0006981317007977319,1500.0,0.0,0.00017453292519943296,0.0,0.0,0.0,0.0,0.008007385767996311,0.0,5.0,-0.2174902856349945,0.0,1.0,1000.0,0.0,0.0,-9.740581512451172,1500.0,0.0,51.4594064,0.021642082724729686,1.0872693061828613,750.0750579833984,36.613987,5.0,-2.0,0.0,1500.0,0.0619591884457987,36.633008,173.0,11.0,458.0,0.0,2.6083945671055258,-14.0,,,,,,,
1.0000219999999942,1572.0,0.0,1418.0,1608.0,-0.6447264552116394,1494.0,7.01,-0.03084450215101242,-2.7913520999999997,-0.021743550896644592,0.0,0.7444193959236145,-0.0008726646259971648,1500.0,0.0,0.00017453292519943296,0.0,0.0,0.0,0.0,0.006111391820013523,0.0,5.0,-0.16093392670154572,0.0,1.0,1000.0,0.0,0.0,-9.750097274780273,1500.0,0.0,51.459406099999995,0.021642082724729686,1.096738576889038,750.0375137329102,36.693729999999995,5.0,-2.0,0.0,1500.0,0.06213372137099813,36.733309999999996,173.0,11.0,458.0,0.0,2.6090926988063234,-14.0,,,,,,,
1.0997050000000002,1572.0,0.0,1418.0,1607.0,-0.6510825753211975,1495.0,7.01,-0.03211335092782974,-2.7913520999999997,-0.02386041358113289,0.0,0.6419268250465393,-0.0010471975511965976,1500.0,0.0,0.00034906585039886593,0.0,0.0,0.0,0.0,0.0028439979068934917,0.0,5.0,-0.21921128034591675,0.0,1.0,1000.0,0.0,0.0,-9.737648010253906,1500.0,0.0,51.459406099999995,0.021642082724729686,1.09013032913208,750.0750579833984,36.813544,5.0,-2.0,0.0,1500.0,0.06161012259539984,36.832993,173.0,11.0,458.0,0.0,2.61013989635752,-14.0,,,,,,,
1.1998389999999972,1571.0,0.0,1417.0,1608.0,-0.6552267670631409,1495.0,6.98,-0.029388347640633583,-2.7913514,-0.01829710230231285,0.0,0.5070682764053345,-0.0012217304763960308,1500.0,0.0,0.00034906585039886593,0.0,0.0,0.0,0.0,0.0013490929268300533,0.0,5.0,-0.17175884544849396,0.0,1.0,1001.0,0.0,0.0,-9.748394966125488,1500.0,0.0,51.4594056,0.021642082724729686,1.084460973739624,750.0750579833984,36.893588,5.0,-2.0,0.0,1500.0,0.061784655520599266,36.933127,173.0,11.0,458.0,0.0,2.6108380280583177,-14.0,,,,,,,
1.2996929999999978,1572.0,0.0,1418.0,1607.0,-0.6574393510818481,1495.0,6.98,-0.030123617500066757,-2.7913514,-0.01921517588198185,0.0,0.6338353157043457,-0.0013962634015954637,1500.0,0.0,0.0005235987755982988,0.0,0.0,0.0,0.0,7.853850547689945e-05,0.0,5.0,-0.23706556856632233,0.0,1.0,1000.0,0.0,0.0,-9.740385055541992,1500.0,0.0,51.4594056,0.021642082724729686,1.0893669128417969,750.0750579833984,37.013601,5.0,-2.0,0.0,1500.0,0.0614355896702004,37.032981,173.0,11.0,458.0,0.0,2.611885225609514,-14.0,,,,,,,
1.3998549999999952,1572.0,0.0,1418.0,1607.0,-0.6571030020713806,1495.0,6.93,-0.02680850401520729,-2.7913509999999997,-0.014199203811585903,0.0,0.6554127335548401,-0.0015707963267948964,1500.0,0.0,0.0005235987755982988,0.0,0.0,0.0,0.0,5.626027996186167e-05,0.0,5.0,-0.15398260951042175,0.0,1.0,1000.0,0.0,0.0,-9.739762306213379,1500.0,0.0,51.4594051,0.021642082724729686,1.083271861076355,750.0375137329102,37.09381,5.0,-2.0,0.0,1500.0,0.0614355896702004,37.133143,173.0,11.0,458.0,0.0,2.612583357310312,-14.0,,,,,,,
1.4996719999999968,1572.0,0.0,1417.0,1608.0,-0.6569162607192993,1494.0,6.93,-0.026678021997213364,-2.7913509999999997,-0.014705127105116844,0.0,0.7498137354850769,-0.0017453292519943296,1500.0,0.0,0.0006981317007977319,0.0,0.0,0.0,0.0,-0.00044935184996575117,0.0,5.0,-0.21397607028484344,0.0,1.0,1000.0,0.0,0.0,-9.74267292022705,1500.0,0.0,51.4594051,0.021642082724729686,1.0781837701797485,750.0750579833984,37.213577,5.0,-2.0,0.0,1500.0,0.061086523819801536,37.23296,173.0,11.0,458.0,0.0,2.613805087786708,-14.0,,,,,,,
1.600018999999996,1572.0,0.0,1417.0,1608.0,-0.6582255959510803,1494.0,6.88,-0.023500168696045876,-2.7913506999999997,-0.009990266524255276,0.0,0.7848769426345825,-0.0019198621771937625,1500.0,0.0,0.0008726646259971648,0.0,0.0,0.0,0.0,-0.0011066299630329013,0.0,5.0,-0.1534186452627182,0.0,1.0,1000.0,0.0,0.0,-9.747143745422363,1500.0,0.0,51.4594047,0.021642082724729686,1.0866713523864746,750.0375137329102,37.29369,5.0,-2.0,0.0,1500.0,0.06091199089460211,37.333307,173.0,11.0,458.0,0.0,2.614503219487506,-14.0,,,,,,,
1.6996469999999988,1572.0,0.0,1418.0,1607.0,-0.6635758876800537,1495.0,6.88,-0.023375486955046654,-2.7913506999999997,-0.00963219627737999,0.0,0.7579052448272705,-0.0020943951023931952,1500.0,-0.00017453292519943296,0.0010471975511965976,0.0,0.0,0.0,0.0,-0.003489992581307888,0.0,5.0,-0.22404448688030243,0.0,1.0,1000.0,0.0,0.0,-9.746630668640137,1500.0,0.0,51.4594047,0.02181661564992912,1.0806856155395508,750.0750579833984,37.413579999999996,5.0,-2.0,0.0,1500.0,0.06056292504420324,37.432935,173.0,11.0,458.0,0.0,2.615724949963902,-14.0,,,,,,,
1.7998189999999994,1571.0,0.0,1417.0,1608.0,-0.6687424778938293,1495.0,6.8500000000000005,-0.019813744351267815,-2.7913504,-0.004784736316651106,0.0,0.7902712821960449,-0.0022689280275926286,1500.0,-0.00017453292519943296,0.0012217304763960308,0.0,0.0,0.0,0.0,-0.006017480976879597,0.0,5.0,-0.18776430189609528,0.0,1.0,1001.0,0.0,0.0,-9.751131057739258,1500.0,0.0,51.459404299999996,0.02181661564992912,1.084348440170288,750.0375137329102,37.493338,5.0,-2.0,0.0,1500.0,0.0603883921190038,37.533107,173.0,11.0,458.0,0.0,2.616423081664699,-14.0,,,,,,,
1.899670999999998,1572.0,0.0,1417.0,1608.0,-0.6782222986221313,1494.0,6.8500000000000005,-0.017625344917178154,-2.7913504,-0.0024932881351560354,0.0,0.7444193959236145,-0.0024434609527920616,1501.0,-0.00017453292519943296,0.0013962634015954637,0.0,0.0,0.0,0.0,-0.009909126907587051,0.0,5.0,-0.217123344540596,0.0,1.0,1000.0,0.0,0.0,-9.741106033325195,1500.0,0.0,51.459404299999996,0.02181661564992912,1.0826029777526855,750.0750579833984,37.6141,5.0,-2.0,0.0,1500.0,0.060039326268604934,37.632959,173.0,11.0,458.0,0.0,2.617470279215896,-14.0,,,,,,,
2.0000209999999967,1572.0,0.0,1418.0,1608.0,-0.6850531697273254,1494.0,6.8100000000000005,-0.014338958077132702,-2.7913501999999997,0.0019753952510654926,0.0,0.7929684519767761,-0.002617993877991494,1500.0,-0.00017453292519943296,0.0015707963267948964,0.0,0.0,0.0,0.0,-0.011898779310286045,0.0,5.0,-0.16741809248924255,0.0,1.0,1000.0,0.0,0.0,-9.733440399169922,1500.0,0.0,51.459404199999994,0.02181661564992912,1.0797748565673828,750.0750579833984,37.693692999999996,5.0,-2.0,0.0,1500.0,0.05969026041820607,37.733309,173.0,11.0,458.0,0.0,2.6181684109166934,-14.0,,,,,,,
2.0996489999999994,1572.0,0.0,1418.0,1607.0,-0.6957823634147644,1495.0,6.8100000000000005,-0.011582337319850922,-2.7913501999999997,0.004206347279250622,0.0,0.8172429800033569,-0.0027925268031909274,1500.0,-0.00034906585039886593,0.0017453292519943296,0.0,0.0,0.0,0.0,-0.015486487187445164,0.0,5.0,-0.20994019508361816,0.0,1.0,1000.0,0.0,0.0,-9.749494552612305,1500.0,0.0,51.459404199999994,0.02199114857512855,1.0779833793640137,750.0750579833984,37.813576,5.0,-2.0,0.0,1500.0,0.059166661642607775,37.832937,173.0,11.0,458.0,0.0,2.6192156084678904,-14.0,,,,,,,
2.199834999999993,1571.0,0.0,1417.0,1608.0,-0.7038654088973999,1495.0,6.79,-0.0075258552096784115,-2.79135,0.008767235092818737,0.0,0.7147504687309265,-0.003141592653589793,1500.0,-0.00034906585039886593,0.0017453292519943296,0.0,0.0,0.0,0.0,-0.018671566620469093,0.0,5.0,-0.16106021404266357,0.0,1.0,1001.0,0.0,0.0,-9.745418548583984,1500.0,0.0,51.459404,0.022165681500327987,1.087247610092163,750.0375137329102,37.893263,5.0,-2.0,0.0,1500.0,0.05881759579220891,37.933122999999995,173.0,11.0,458.0,0.0,2.6200882730938875,-14.0,,,,,,,
2.2996769999999955,1572.0,0.0,1417.0,1608.0,-0.7154106497764587,1494.0,6.79,-0.004308989271521568,-2.79135,0.011201822198927402,0.0,0.7767854332923889,-0.0033161255787892262,1500.0,-0.00034906585039886593,0.0019198621771937625,0.0,0.0,0.0,0.0,-0.02259429357945919,0.0,5.0,-0.22645998001098633,0.0,1.0,1000.0,0.0,0.0,-9.739838600158691,1501.0,0.0,51.459404,0.022165681500327987,1.0833944082260132,750.0750579833984,38.013566,5.0,-2.0,0.0,1500.0,0.05846852994181004,38.032965,173.0,11.0,458.0,0.0,2.6213100035702834,-14.0,,,,,,,
2.3998889999999946,1571.0,0.0,1417.0,1608.0,-0.7224190831184387,1495.0,6.7700000000000005,-0.00010153366019949317,-2.7913497,0.016406424343585968,0.0,0.5960749387741089,-0.003490658503988659,1500.0,-0.00034906585039886593,0.0020943951023931952,0.0,0.0,0.0,0.0,-0.02472822368144989,0.0,5.0,-0.1647288054227829,0.0,1.0,1001.0,0.0,0.0,-9.73978328704834,1500.0,0.0,51.4594038,0.02234021442552742,1.0914132595062256,750.0562591552734,38.093751,5.0,-2.0,0.0,1500.0,0.057944931166211744,38.133176999999996,173.0,11.0,458.0,0.0,2.622182668196281,-14.0,,,,,,,
2.4996189999999956,1572.0,0.0,1417.0,1608.0,-0.7299225330352783,1494.0,6.7700000000000005,0.0038534817285835743,-2.7913497,0.01922188512980938,0.0,0.7848769426345825,-0.003665191429188092,1500.0,-0.0005235987755982988,0.0020943951023931952,0.0,0.0,0.0,0.0,-0.027075033634901047,0.0,5.0,-0.2182946652173996,0.0,1.0,1000.0,0.0,0.0,-9.751913070678711,1501.0,0.0,51.4594038,0.022514747350726852,1.0860035419464111,750.0750579833984,38.213617,5.0,-2.0,0.0,1500.0,0.05759586531581288,38.232907,173.0,11.0,458.0,0.0,2.623753464523076,-14.0,,,,,,,
2.599996999999995,1572.0,0.0,1418.0,1607.0,-0.7337762117385864,1495.0,6.76,0.007968926802277565,-2.7913494,0.023189209401607513,0.0,0.6446239948272705,-0.004014257279586958,1500.0,-0.0005235987755982988,0.0022689280275926286,0.0,0.0,0.0,0.0,-0.02814931981265545,0.0,5.0,-0.15217047929763794,0.0,1.0,1000.0,0.0,0.0,-9.74672794342041,1500.0,0.0,51.4594035,0.022514747350726852,1.0893604755401611,750.0562591552734,38.293698,5.0,-2.0,0.0,1500.0,0.057246799465414014,38.333285,173.0,11.0,458.0,0.0,2.624626129149073,-14.0,,,,,,,
2.6996679999999955,1572.0,0.0,1418.0,1607.0,-0.7386179566383362,1495.0,6.76,0.011575316078960896,-2.7913494,0.025539547204971313,0.0,0.7767854332923889,-0.0041887902047863905,1500.0,-0.0005235987755982988,0.0022689280275926286,0.0,0.0,0.0,0.0,-0.029797712340950966,0.0,5.0,-0.21290357410907745,0.0,1.0,1000.0,0.0,0.0,-9.74742317199707,1500.0,0.0,51.4594035,0.022689280275926284,1.0790177583694458,750.0750579833984,38.413592,5.0,-2.0,0.0,1500.0,0.05689773361501515,38.432956,173.0,11.0,458.0,0.0,2.6261969254758677,-14.0,,,,,,,
2.7999049999999954,1572.0,0.0,1417.0,1608.0,-0.7414796352386475,1494.0,6.78,0.015370012260973454,-2.791349,0.02868802845478058,0.0,0.7444193959236145,-0.004363323129985824,1500.0,-0.0005235987755982988,0.0022689280275926286,0.0,0.0,0.0,0.0,-0.030540309846401215,0.0,5.0,-0.16058918833732605,0.0,1.0,1000.0,0.0,0.0,-9.738466262817383,1500.0,0.0,51.4594034,0.022689280275926284,1.0853252410888672,750.0750579833984,38.493308,5.0,-2.0,0.0,1501.0,0.056548667764616284,38.533193,173.0,11.0,458.0,0.0,2.627069590101865,-14.0,,,,,,,
2.8997349999999997,1572.0,0.0,1418.0,1608.0,-0.7467041015625,1494.0,6.78,0.01890692301094532,-2.791349,0.030591068789362907,0.0,0.5798919200897217,-0.004537856055185257,1500.0,-0.0005235987755982988,0.0022689280275926286,0.0,0.0,0.0,0.0,-0.03201201930642128,0.0,5.0,-0.20383325219154358,0.0,1.0,1000.0,0.0,0.0,-9.73730182647705,1500.0,0.0,51.4594034,0.022863813201125717,1.0971591472625732,750.0750579833984,38.613864,5.0,-2.0,0.0,1500.0,0.056548667764616284,38.633023,173.0,11.0,458.0,0.0,2.62864038642866,-14.0,,,,,,,
2.9998839999999944,1572.0,0.0,1417.0,1608.0,-0.7482551336288452,1494.0,6.7700000000000005,0.021027935668826103,-2.7913487,0.032883282750844955,0.0,0.6769900918006897,-0.00471238898038469,1500.0,-0.0005235987755982988,0.0022689280275926286,0.0,0.0,0.0,0.0,-0.032159000635147095,0.0,5.0,-0.16706223785877228,0.0,1.0,1000.0,0.0,0.0,-9.731378555297852,1500.0,0.0,51.4594033,0.022863813201125717,1.084211826324463,750.0562591552734,38.693593,5.0,-2.0,0.0,1501.0,0.05619960191421741,38.733171999999996,173.0,11.0,458.0,0.0,2.6296875839798566,-14.0,,,,,,,
3.099659999999993,1572.0,0.0,1418.0,1608.0,-0.7477669715881348,1494.0,6.7700000000000005,0.023866960778832436,-2.7913487,0.03439626097679138,0.0,0.7309334874153137,-0.004886921905584123,1500.0,-0.0005235987755982988,0.0022689280275926286,0.0,0.0,0.0,0.0,-0.031271059066057205,0.0,5.0,-0.21142855286598206,0.0,1.0,1000.0,0.0,0.0,-9.741106033325195,1500.0,0.0,51.4594033,0.02303834612632515,1.0840721130371094,750.0562591552734,38.813601999999996,5.0,-2.0,0.0,1500.0,0.05619960191421741,38.832947999999995,173.0,11.0,458.0,0.0,2.631083847381452,-14.0,,,,,,,
3.1998199999999954,1572.0,0.0,1418.0,1607.0,-0.7477116584777832,1495.0,6.74,0.02597571723163128,-2.7913482999999997,0.03569087013602257,0.0,0.7309334874153137,-0.005061454830783556,1500.0,-0.0006981317007977319,0.0022689280275926286,0.0,0.0,0.0,0.0,-0.03097621537744999,0.0,5.0,-0.17207598686218262,0.0,1.0,1000.0,0.0,0.0,-9.738432884216309,1500.0,0.0,51.4594029,0.02303834612632515,1.0882240533828735,750.0562591552734,38.893342,5.0,-2.0,0.0,1500.0,0.05619960191421741,38.933108,173.0,11.0,458.0,0.0,2.6321310449326485,-14.0,,,,,,,
3.299675999999998,1572.0,0.0,1417.0,1608.0,-0.7486478090286255,1495.0,6.74,0.02719949185848236,-2.7913482999999997,0.03607006371021271,0.0,0.7579052448272705,-0.005235987755982988,1500.0,-0.0006981317007977319,0.0022689280275926286,0.0,0.0,0.0,0.0,-0.030375076457858086,0.0,5.0,-0.20523732900619507,0.0,1.0,1000.0,0.0,0.0,-9.744338989257812,1500.0,0.0,51.4594029,0.02303834612632515,1.0840531587600708,750.0562591552734,39.013557999999996,5.0,-2.0,0.0,1500.0,0.05619960191421741,39.032964,173.0,11.0,458.0,0.0,2.6335273083342443,-14.0,,,,,,,
3.3998499999999936,1572.0,0.0,1418.0,1608.0,-0.7500743865966797,1494.0,6.72,0.028402363881468773,-2.7913482,0.03660477325320244,0.0,0.7012646198272705,-0.005235987755982988,1500.0,-0.0006981317007977319,0.0022689280275926286,0.0,0.0,0.0,0.0,-0.030725689604878426,0.0,5.0,-0.1785668581724167,0.0,1.0,1000.0,0.0,0.0,-9.740514755249023,1500.0,0.0,51.4594027,0.02303834612632515,1.0899314880371094,750.0562591552734,39.093762,5.0,-2.0,0.0,1500.0,0.05619960191421741,39.133137999999995,173.0,11.0,458.0,0.0,2.634399972960241,-14.0,,,,,,,
3.499658999999994,1572.0,0.0,1418.0,1607.0,-0.7524510622024536,1495.0,6.72,0.028945107012987137,-2.7913482,0.03686463087797165,0.0,0.6823844313621521,-0.0054105206811824215,1500.0,-0.0006981317007977319,0.0022689280275926286,0.0,0.0,0.0,0.0,-0.031126154586672783,0.0,5.0,-0.20095452666282654,0.0,1.0,1000.0,0.0,0.0,-9.752764701843262,1500.0,0.0,51.4594027,0.02303834612632515,1.0920376777648926,750.0562591552734,39.213556,5.0,-2.0,0.0,1500.0,0.05637413483941684,39.232946999999996,173.0,11.0,458.0,0.0,2.635621703436637,-14.0,,,,,,,
3.6996779999999987,1572.0,0.0,1418.0,1607.0,-0.7543988227844238,1495.0,6.72,0.028857827186584473,-2.7913482,0.036399733275175095,0.0,0.7498137354850769,-0.005585053606381855,1500.0,-0.0005235987755982988,0.0022689280275926286,0.0,0.0,0.0,0.0,-0.030244814231991768,0.0,5.0,-0.18807728588581085,0.0,1.0,1000.0,0.0,0.0,-9.74378776550293,1500.0,0.0,51.4594027,0.02303834612632515,1.085222601890564,750.0562591552734,39.41357,5.0,-2.0,0.0,1500.0,0.056548667764616284,39.432966,173.0,11.0,458.0,0.0,2.63771609853903,-14.0,,,,,,,
3.799966999999995,1572.0,0.0,1418.0,1607.0,-0.7552509307861328,1495.0,6.78,0.02883087284862995,-2.7913476,0.035836361348629,0.0,0.5852862596511841,-0.005759586531581287,1500.0,-0.0005235987755982988,0.0020943951023931952,0.0,0.0,0.0,0.0,-0.029806923121213913,0.0,5.0,-0.18305689096450806,0.0,1.0,1000.0,0.0,0.0,-9.748190879821777,1500.0,0.0,51.459402399999995,0.02303834612632515,1.0965971946716309,750.0562591552734,39.493454,5.0,-2.0,0.0,1500.0,0.056548667764616284,39.533255,173.0,11.0,458.0,0.0,2.6385887631650276,-14.0,,,,,,,
3.8996489999999966,1572.0,0.0,1417.0,1608.0,-0.7534942626953125,1494.0,6.78,0.028508037328720093,-2.7913476,0.03470286726951599,0.0,0.6850816011428833,-0.005759586531581287,1500.0,-0.0005235987755982988,0.0020943951023931952,0.0,0.0,0.0,0.0,-0.027863016352057457,0.0,5.0,-0.1799587607383728,0.0,1.0,1000.0,0.0,0.0,-9.741300582885742,1500.0,0.0,51.459402399999995,0.02303834612632515,1.0880322456359863,750.0562591552734,39.614148,5.0,-2.0,0.0,1500.0,0.056548667764616284,39.632937,173.0,11.0,458.0,0.0,2.6398104936414235,-14.0,,,,,,,
4.0000049999999945,1572.0,0.0,1418.0,1608.0,-0.7508121132850647,1494.0,6.84,0.027654804289340973,-2.7913471,0.034156013280153275,0.0,0.7309334874153137,-0.005934119456780721,1500.0,-0.0005235987755982988,0.0020943951023931952,0.0,0.0,0.0,0.0,-0.02560468390583992,0.0,5.0,-0.20198392868041992,0.0,1.0,1000.0,0.0,0.0,-9.751781463623047,1500.0,0.0,51.459402499999996,0.02303834612632515,1.0774755477905273,750.0562591552734,39.693664,5.0,-2.0,0.0,1500.0,0.05672320068981571,39.733292999999996,173.0,11.0,458.0,0.0,2.640508625342221,-14.0,,,,,,,
4.0996959999999945,1572.0,0.0,1418.0,1607.0,-0.7477470636367798,1495.0,6.84,0.026936814188957214,-2.7913471,0.03360607102513313,0.0,0.7228419780731201,-0.005934119456780721,1500.0,-0.0005235987755982988,0.0020943951023931952,0.0,0.0,0.0,0.0,-0.023425564169883728,0.0,5.0,-0.18374711275100708,0.0,1.0,1000.0,0.0,0.0,-9.75100326538086,1500.0,0.0,51.459402499999996,0.02303834612632515,1.086730718612671,750.0938034057617,39.813534,5.0,-2.0,0.0,1500.0,0.05672320068981571,39.832983999999996,173.0,11.0,458.0,0.0,2.6417303558186176,-14.0,,,,,,,
4.199873999999994,1572.0,0.0,1418.0,1608.0,-0.7466031908988953,1494.0,6.88,0.0262509286403656,-2.7913468,0.032378215342760086,0.0,0.7579052448272705,-0.005934119456780721,1500.0,-0.0005235987755982988,0.0020943951023931952,0.0,0.0,0.0,0.0,-0.02294285036623478,0.0,5.0,-0.1883200854063034,0.0,1.0,1000.0,0.0,0.0,-9.74625015258789,1500.0,0.0,51.459402499999996,0.02303834612632515,1.0976955890655518,750.0562591552734,39.893350999999996,5.0,-2.0,0.0,1500.0,0.05672320068981571,39.933161999999996,173.0,11.0,458.0,0.0,2.642428487519415,-14.0,,,,,,,
4.299651999999995,1572.0,0.0,1418.0,1607.0,-0.7464353442192078,1495.0,6.88,0.02495458722114563,-2.7913468,0.030890965834259987,0.0,0.8280317187309265,-0.005934119456780721,1500.0,-0.0005235987755982988,0.0019198621771937625,0.0,0.0,0.0,0.0,-0.022806720808148384,0.0,5.0,-0.19401760399341583,0.0,1.0,1000.0,0.0,0.0,-9.736075401306152,1500.0,0.0,51.459402499999996,0.02303834612632515,1.080244779586792,750.0562591552734,40.013588999999996,5.0,-2.0,0.0,1500.0,0.05707226654021458,40.032939999999996,173.0,11.0,458.0,0.0,2.6433011521454124,-14.0,,,,,,,
4.399968999999999,1572.0,0.0,1417.0,1608.0,-0.7484114170074463,1495.0,6.94,0.023626476526260376,-2.7913463999999997,0.029783176258206367,0.0,0.8442147374153137,-0.005934119456780721,1500.0,-0.0005235987755982988,0.0019198621771937625,0.0,0.0,0.0,0.0,-0.023361289873719215,0.0,5.0,-0.19532084465026855,0.0,1.0,1000.0,0.0,0.0,-9.739173889160156,1500.0,0.0,51.4594026,0.02303834612632515,1.09126615524292,750.0562591552734,40.093765999999995,5.0,-2.0,0.0,1500.0,0.05707226654021458,40.133257,173.0,11.0,458.0,0.0,2.64399928384621,-14.0,,,,,,,
4.499668999999997,1572.0,0.0,1417.0,1608.0,-0.7550055384635925,1494.0,6.94,0.022715436294674873,-2.7913463999999997,0.02888813428580761,0.0,0.7740882635116577,-0.005934119456780721,1500.0,-0.0005235987755982988,0.0019198621771937625,0.0,0.0,0.0,0.0,-0.025799095630645752,0.0,5.0,-0.17714335024356842,0.0,1.0,1000.0,0.0,0.0,-9.739688873291016,1500.0,0.0,51.4594026,0.022863813201125717,1.0919532775878906,750.0562591552734,40.213588,5.0,-2.0,0.0,1501.0,0.057246799465414014,40.232957,173.0,11.0,458.0,0.0,2.6450464813974066,-14.0,,,,,,,
4.6000119999999995,1572.0,0.0,1418.0,1607.0,-0.7603310346603394,1495.0,7.01,0.021443665027618408,-2.7913460999999997,0.027700530365109444,0.0,0.6796872615814209,-0.005934119456780721,1500.0,-0.0005235987755982988,0.0019198621771937625,0.0,0.0,0.0,0.0,-0.02774583362042904,0.0,5.0,-0.19259358942508698,0.0,1.0,1000.0,0.0,0.0,-9.743907928466797,1500.0,0.0,51.4594029,0.022863813201125717,1.0956515073776245,750.0562591552734,40.293977,5.0,-2.0,0.0,1500.0,0.057246799465414014,40.3333,173.0,11.0,458.0,0.0,2.645570080173005,-14.0,,,,,,,
4.699681999999996,1572.0,0.0,1418.0,1607.0,-0.7660177946090698,1495.0,7.01,0.02024366520345211,-2.7913460999999997,0.026687338948249817,0.0,0.7066589593887329,-0.005934119456780721,1500.0,-0.0005235987755982988,0.0019198621771937625,0.0,0.0,0.0,0.0,-0.029319413006305695,0.0,5.0,-0.18252567946910858,0.0,1.0,1000.0,0.0,0.0,-9.742410659790039,1500.0,0.0,51.4594029,0.022863813201125717,1.0879427194595337,750.0562591552734,40.413565999999996,5.0,-2.0,0.0,1500.0,0.05742133239061344,40.43297,173.0,11.0,458.0,0.0,2.646442744799002,-14.0,,,,,,,
4.799868999999994,1572.0,0.0,1418.0,1607.0,-0.7678367495536804,1495.0,7.08,0.019452840089797974,-2.7913457999999998,0.025430936366319656,0.0,0.7363278865814209,-0.005934119456780721,1500.0,-0.0005235987755982988,0.0017453292519943296,0.0,0.0,0.0,0.0,-0.02898552641272545,0.0,5.0,-0.19374704360961914,0.0,1.0,1000.0,0.0,0.0,-9.748384475708008,1500.0,0.0,51.4594032,0.022863813201125717,1.0713231563568115,750.0562591552734,40.493392,5.0,-2.0,0.0,1500.0,0.05742133239061344,40.533156999999996,173.0,11.0,458.0,0.0,2.646791810649401,-14.0,,,,,,,
4.8997189999999975,1572.0,0.0,1418.0,1607.0,-0.7694978713989258,1495.0,7.08,0.01857934147119522,-2.7913457999999998,0.024111026898026466,0.0,0.8064543008804321,-0.005934119456780721,1500.0,-0.0005235987755982988,0.0017453292519943296,0.0,0.0,0.0,0.0,-0.028596173971891403,0.0,5.0,-0.17428895831108093,0.0,1.0,1000.0,0.0,0.0,-9.74782943725586,1500.0,0.0,51.4594032,0.022863813201125717,1.0851514339447021,750.0562591552734,40.614128,5.0,-2.0,0.0,1500.0,0.05759586531581288,40.633007,173.0,11.0,458.0,0.0,2.6474899423501985,-14.0,,,,,,,
4.999902999999996,1572.0,0.0,1417.0,1608.0,-0.7712969779968262,1494.0,7.13,0.01742781326174736,-2.7913455,0.02244691178202629,0.0,0.6769900918006897,-0.005934119456780721,1501.0,-0.0005235987755982988,0.0017453292519943296,0.0,0.0,0.0,0.0,-0.028650641441345215,0.0,5.0,-0.18643563985824585,0.0,1.0,1000.0,0.0,0.0,-9.750656127929688,1500.0,0.0,51.4594035,0.022863813201125717,1.095381736755371,750.0562591552734,40.693630999999996,5.0,-2.0,0.0,1500.0,0.05777039824101231,40.733191,173.0,11.0,458.0,0.0,2.6478390082005974,-14.0,,,,,,,
5.099665999999999,1572.0,0.0,1418.0,1608.0,-0.7732236981391907,1494.0,7.13,0.016389772295951843,-2.7913455,0.021095478907227516,0.0,0.6904759407043457,-0.005759586531581287,1500.0,-0.0005235987755982988,0.0017453292519943296,0.0,0.0,0.0,0.0,-0.02816925197839737,0.0,5.0,-0.17791740596294403,0.0,1.0,1000.0,0.0,0.0,-9.747413635253906,1500.0,0.0,51.4594035,0.022689280275926284,1.0853793621063232,750.0562591552734,40.813548999999995,5.0,-2.0,0.0,1500.0,0.05777039824101231,40.832954,173.0,11.0,458.0,0.0,2.6483626069761956,-14.0,,,,,,,
5.1999019999999945,1572.0,0.0,1418.0,1607.0,-0.7727214694023132,1495.0,7.23,0.01537807285785675,-2.7913451,0.01970311626791954,0.0,0.6581099033355713,-0.005759586531581287,1500.0,-0.0005235987755982988,0.0017453292519943296,0.0,0.0,0.0,0.0,-0.027011916041374207,0.0,5.0,-0.19240565598011017,0.0,1.0,1000.0,0.0,0.0,-9.753524780273438,1500.0,0.0,51.4594041,0.022689280275926284,1.097810983657837,750.0562591552734,40.893324,5.0,-2.0,0.0,1500.0,0.057944931166211744,40.933189999999996,173.0,11.0,458.0,0.0,2.648537139901395,-14.0,,,,,,,
5.299692999999998,1572.0,0.0,1418.0,1607.0,-0.7697148323059082,1495.0,7.23,0.013797557912766933,-2.7913451,0.018638385459780693,0.0,0.7848769426345825,-0.005759586531581287,1500.0,-0.0005235987755982988,0.0017453292519943296,0.0,0.0,0.0,0.0,-0.024890052154660225,0.0,5.0,-0.1906372606754303,0.0,1.0,1000.0,0.0,0.0,-9.743229866027832,1500.0,0.0,51.4594041,0.022689280275926284,1.0856183767318726,750.0562591552734,41.013587,5.0,-2.0,0.0,1500.0,0.057944931166211744,41.032981,173.0,11.0,458.0,0.0,2.6490607386769933,-14.0,,,,,,,
5.3998339999999985,1572.0,0.0,1418.0,1607.0,-0.7679672241210938,1495.0,7.32,0.01293695904314518,-2.7913447,0.017985431477427483,0.0,0.7066589593887329,-0.005585053606381855,1500.0,-0.0005235987755982988,0.0017453292519943296,0.0,0.0,0.0,0.0,-0.023125266656279564,0.0,5.0,-0.19647085666656494,0.0,1.0,1000.0,0.0,0.0,-9.735922813415527,1500.0,0.0,51.4594045,0.022689280275926284,1.094070315361023,750.0375137329102,41.093731,5.0,-2.0,0.0,1500.0,0.05811946409141117,41.133122,173.0,11.0,458.0,0.0,2.6492352716021927,-14.0,,,,,,,
5.499648999999998,1572.0,0.0,1418.0,1607.0,-0.7662196755409241,1495.0,7.32,0.011560683138668537,-2.7913447,0.01820027455687523,0.0,0.6931731104850769,-0.005585053606381855,1500.0,-0.0005235987755982988,0.0015707963267948964,0.0,0.0,0.0,0.0,-0.0214543379843235,0.0,5.0,-0.19480331242084503,0.0,1.0,1000.0,0.0,0.0,-9.75522232055664,1500.0,0.0,51.4594045,0.022689280275926284,1.0869327783584595,750.0562591552734,41.213592,5.0,-2.0,0.0,1500.0,0.0582939970166106,41.232937,173.0,11.0,458.0,0.0,2.6495843374525916,-14.0,,,,,,,
5.599899999999998,1572.0,0.0,1417.0,1608.0,-0.7643643021583557,1494.0,7.390000000000001,0.010817219503223896,-2.7913444,0.016998013481497765,0.0,0.8657920956611633,-0.005585053606381855,1500.0,-0.0005235987755982988,0.0015707963267948964,0.0,0.0,0.0,0.0,-0.02005882002413273,0.0,5.0,-0.20241914689540863,0.0,1.0,1000.0,0.0,0.0,-9.748064041137695,1501.0,0.0,51.459404799999994,0.022689280275926284,1.0924034118652344,750.0375137329102,41.293710999999995,5.0,-2.0,0.0,1500.0,0.0582939970166106,41.333188,173.0,11.0,458.0,0.0,2.649933403302991,-14.0,,,,,,,
5.699690999999994,1572.0,0.0,1418.0,1608.0,-0.7641472816467285,1494.0,7.390000000000001,0.00950611662119627,-2.7913444,0.01548828650265932,0.0,0.6796872615814209,-0.005585053606381855,1500.0,-0.0005235987755982988,0.0015707963267948964,0.0,0.0,0.0,0.0,-0.01925387792289257,0.0,5.0,-0.19440363347530365,0.0,1.0,1000.0,0.0,0.0,-9.736225128173828,1500.0,0.0,51.459404799999994,0.022689280275926284,1.0795601606369019,750.0562591552734,41.413582999999996,5.0,-2.0,0.0,1500.0,0.0582939970166106,41.432978999999996,173.0,11.0,458.0,0.0,2.6502824691533893,-14.0,,,,,,,
5.799907999999995,1572.0,0.0,1418.0,1607.0,-0.7646968960762024,1495.0,7.44,0.009272383525967598,-2.7913441,0.014565113000571728,0.0,0.7444193959236145,-0.0054105206811824215,1500.0,-0.0005235987755982988,0.0015707963267948964,0.0,0.0,0.0,0.0,-0.01875595562160015,0.0,5.0,-0.18611416220664978,0.0,1.0,1000.0,0.0,0.0,-9.744630813598633,1500.0,0.0,51.459405,0.022689280275926284,1.0751241445541382,750.0375137329102,41.493159999999996,5.0,-2.0,0.0,1500.0,0.05846852994181004,41.533196,173.0,11.0,458.0,0.0,2.650457002078589,-14.0,,,,,,,
5.899678999999999,1572.0,0.0,1417.0,1608.0,-0.7642583250999451,1495.0,7.44,0.008534476161003113,-2.7913441,0.013868780806660652,0.0,0.7929684519767761,-0.0054105206811824215,1500.0,-0.0005235987755982988,0.0015707963267948964,0.0,0.0,0.0,0.0,-0.01799587532877922,0.0,5.0,-0.1693592369556427,0.0,1.0,1000.0,0.0,0.0,-9.73946762084961,1500.0,0.0,51.459405,0.022689280275926284,1.0807106494903564,750.0562591552734,41.61409,5.0,-2.0,0.0,1500.0,0.05846852994181004,41.632967,173.0,11.0,458.0,0.0,2.6508060679289875,-14.0,,,,,,,
5.999869999999994,1572.0,0.0,1418.0,1607.0,-0.7648119926452637,1495.0,7.49,0.008276572450995445,-2.7913438,0.012743839994072914,0.0,0.6608070731163025,-0.0054105206811824215,1500.0,-0.0005235987755982988,0.0015707963267948964,0.0,0.0,0.0,0.0,-0.01774119772017002,0.0,5.0,-0.17563650012016296,0.0,1.0,1000.0,0.0,0.0,-9.74199104309082,1500.0,0.0,51.4594052,0.022689280275926284,1.0905325412750244,750.0562591552734,41.693695999999996,5.0,-2.0,0.0,1500.0,0.058643062867009474,41.733157999999996,173.0,11.0,458.0,0.0,2.651155133779387,-14.0,,,,,,,
6.099598999999998,1572.0,0.0,1417.0,1608.0,-0.7645978927612305,1495.0,7.49,0.007905055768787861,-2.7913438,0.011792021803557873,0.0,0.6176522970199585,-0.005235987755982988,1500.0,-0.0005235987755982988,0.0015707963267948964,0.0,0.0,0.0,0.0,-0.016476429998874664,0.0,5.0,-0.1871982365846634,0.0,1.0,1000.0,0.0,0.0,-9.741710662841797,1500.0,0.0,51.4594052,0.022689280275926284,1.0809006690979004,750.13134765625,41.813595,5.0,-2.0,0.0,1500.0,0.058643062867009474,41.832887,173.0,11.0,458.0,0.0,2.6515041996297857,-14.0,,,,,,,
6.199982999999996,1572.0,0.0,1418.0,1608.0,-0.7618117332458496,1494.0,7.5600000000000005,0.007591287139803171,-2.7913435,0.011341182515025139,0.0,0.5340399742126465,-0.005235987755982988,1500.0,-0.0005235987755982988,0.0015707963267948964,0.0,0.0,0.0,0.0,-0.014631367288529873,0.0,5.0,-0.18850937485694885,0.0,1.0,1000.0,0.0,0.0,-9.734160423278809,1500.0,0.0,51.459405399999994,0.022689280275926284,1.0792603492736816,750.0562591552734,41.893392,5.0,-2.0,0.0,1500.0,0.05881759579220891,41.933271,173.0,11.0,458.0,0.0,2.651678732554985,-14.0,,,,,,,
6.299687999999996,1572.0,0.0,1418.0,1607.0,-0.7525476813316345,1495.0,7.5600000000000005,0.007047619670629501,-2.7913435,0.01094744261354208,0.0,0.7875741124153137,-0.005061454830783556,1500.0,-0.0005235987755982988,0.0015707963267948964,0.0,0.0,0.0,0.0,-0.00969475507736206,0.0,5.0,-0.19721704721450806,0.0,1.0,1000.0,0.0,0.0,-9.749317169189453,1500.0,0.0,51.459405399999994,0.022689280275926284,1.0935465097427368,750.0562591552734,42.013538,5.0,-2.0,0.0,1500.0,0.05881759579220891,42.032976,173.0,11.0,458.0,0.0,2.651853265480184,-14.0,,,,,,,
6.399899999999995,1572.0,0.0,1418.0,1607.0,-0.7464557886123657,1495.0,7.6000000000000005,0.006621561944484711,-2.7913433,0.010836862027645111,0.0,0.7255391478538513,-0.005061454830783556,1500.0,-0.0005235987755982988,0.0013962634015954637,0.0,0.0,0.0,0.0,-0.006775450427085161,0.0,5.0,-0.2120932638645172,0.0,1.0,1000.0,0.0,0.0,-9.75106430053711,1500.0,0.0,51.4594056,0.022689280275926284,1.084792137145996,750.0375137329102,42.093751999999995,5.0,-2.0,0.0,1500.0,0.05899212871740834,42.133188,173.0,11.0,458.0,0.0,2.652027798405384,-14.0,,,,,,,
6.4996559999999945,1572.0,0.0,1417.0,1608.0,-0.7406153678894043,1494.0,7.6000000000000005,0.006276017986238003,-2.7913433,0.010374017059803009,0.0,0.7336306571960449,-0.005061454830783556,1501.0,-0.0005235987755982988,0.0013962634015954637,0.0,0.0,0.0,0.0,-0.004438907373696566,0.0,5.0,-0.19057981669902802,0.0,1.0,1000.0,0.0,0.0,-9.742512702941895,1500.0,0.0,51.4594056,0.022689280275926284,1.0954960584640503,750.0562591552734,42.213530999999996,5.0,-2.0,0.0,1500.0,0.05899212871740834,42.232943999999996,173.0,11.0,458.0,0.0,2.652027798405384,-14.0,,,,,,,
6.599900999999996,1572.0,0.0,1418.0,1607.0,-0.7377448678016663,1495.0,7.640000000000001,0.005922254640609026,-2.7913430999999997,0.009814169257879257,0.0,0.5771947503089905,-0.004886921905584123,1500.0,-0.0005235987755982988,0.0013962634015954637,0.0,0.0,0.0,0.0,-0.0031836966518312693,0.0,5.0,-0.19647258520126343,0.0,1.0,1000.0,0.0,0.0,-9.748056411743164,1500.0,0.0,51.4594058,0.022514747350726852,1.0888055562973022,750.0375137329102,42.293867999999996,5.0,-2.0,0.0,1500.0,0.05899212871740834,42.333189,173.0,11.0,458.0,0.0,2.6522023313305834,-14.0,,,,,,,
6.699712999999996,1572.0,0.0,1417.0,1608.0,-0.7317120432853699,1494.0,7.640000000000001,0.005512708332389593,-2.7913430999999997,0.009074406698346138,0.0,0.6823844313621521,-0.004886921905584123,1501.0,-0.0005235987755982988,0.0013962634015954637,0.0,0.0,0.0,0.0,-0.0004632583004422486,0.0,5.0,-0.1804259717464447,0.0,1.0,1000.0,0.0,0.0,-9.745481491088867,1500.0,0.0,51.4594058,0.022514747350726852,1.064359426498413,750.0375137329102,42.413595,5.0,-2.0,0.0,1500.0,0.059166661642607775,42.433001,173.0,11.0,458.0,0.0,2.6522023313305834,-14.0,,,,,,,
6.799995999999993,1572.0,0.0,1418.0,1608.0,-0.7265024781227112,1494.0,7.69,0.005119903478771448,-2.7913428,0.008066860027611256,0.0,0.7902712821960449,-0.00471238898038469,1500.0,-0.0005235987755982988,0.0013962634015954637,0.0,0.0,0.0,0.0,0.002058490877971053,0.0,5.0,-0.19916996359825134,0.0,1.0,1000.0,0.0,0.0,-9.747371673583984,1500.0,0.0,51.459406099999995,0.022514747350726852,1.088730812072754,750.0375137329102,42.493345999999995,5.0,-2.0,0.0,1500.0,0.059166661642607775,42.533283999999995,173.0,11.0,458.0,0.0,2.6522023313305834,-14.0,,,,,,,
6.899686999999993,1572.0,0.0,1418.0,1607.0,-0.7214003205299377,1495.0,7.69,0.004408803302794695,-2.7913428,0.007965752854943275,0.0,0.7498137354850769,-0.00471238898038469,1500.0,-0.0005235987755982988,0.0013962634015954637,0.0,0.0,0.0,0.0,0.004670718219131231,0.0,5.0,-0.1951846182346344,0.0,1.0,1000.0,0.0,0.0,-9.748512268066406,1500.0,0.0,51.459406099999995,0.022514747350726852,1.0990111827850342,750.0750579833984,42.614098,5.0,-3.0,0.0,1500.0,0.059166661642607775,42.632974999999995,197.0,11.0,444.0,0.0,2.6522023313305834,-14.0,,,,,,,
7.000024999999994,1572.0,0.0,1417.0,1608.0,-0.7200040817260742,1495.0,7.73,0.003811436705291271,-2.7913425,0.008216319605708122,0.0,0.6985674500465393,-0.004537856055185257,1500.0,-0.0005235987755982988,0.0013962634015954637,0.0,0.0,0.0,0.0,0.005496426951140165,0.0,5.0,-0.19882503151893616,0.0,1.0,1000.0,0.0,0.0,-9.746603012084961,1500.0,0.0,51.4594063,0.022514747350726852,1.1079106330871582,750.0375137329102,42.693746999999995,5.0,-3.0,0.0,1500.0,0.059341194567807204,42.733312999999995,197.0,11.0,444.0,0.0,2.6522023313305834,-14.0,,,,,,,
7.099669999999996,1572.0,0.0,1417.0,1608.0,-0.7183682918548584,1494.0,7.73,0.0030656082089990377,-2.7913425,0.008218460716307163,0.0,0.8280317187309265,-0.004537856055185257,1500.0,-0.0005235987755982988,0.0013962634015954637,0.0,0.0,0.0,0.0,0.006160707678645849,0.0,5.0,-0.2108074128627777,0.022263769060373306,1.0,1000.0,0.0,0.0,-9.746312141418457,1501.0,0.020807797089219093,51.4594063,0.022514747350726852,1.0923482179641724,750.0750579833984,42.81357,5.0,-3.0,0.0,1500.0,0.05951572749300664,42.832958,197.0,11.0,444.0,0.0,2.6522023313305834,-14.0,,,,,,,
7.199890999999994,1572.0,0.0,1417.0,1608.0,-0.7186384797096252,1495.0,7.7700000000000005,0.0028727075550705194,-2.7913422,0.007894921116530895,0.0,0.8037571310997009,-0.004537856055185257,1500.0,-0.0005235987755982988,0.0013962634015954637,0.0,0.0,0.0,0.0,0.005821452010422945,0.0,5.0,-0.18878261744976044,0.022263769060373306,1.0,1000.0,0.0,0.0,-9.753805160522461,1500.0,0.020807797089219093,51.4594065,0.022514747350726852,1.0805652141571045,750.0375137329102,42.893392,5.0,-3.0,0.0,1500.0,0.05951572749300664,42.933178999999996,197.0,11.0,444.0,0.0,2.6522023313305834,-14.0,,,,,,,
7.299636,1572.0,0.0,1417.0,1608.0,-0.72207111120224,1494.0,7.7700000000000005,0.002223684685304761,-2.7913422,0.006742989644408226,0.0,0.7794826030731201,-0.004363323129985824,1500.0,-0.0005235987755982988,0.0013962634015954637,0.0,0.0,0.0,0.0,0.0041084145195782185,0.0,5.0,-0.19753557443618774,0.04452753812074661,1.0,1000.0,0.0,0.0,-9.746792793273926,1501.0,0.04161559417843819,51.4594065,0.022514747350726852,1.084967851638794,750.0375137329102,43.013605,5.0,-3.0,0.0,1500.0,0.05951572749300664,43.032924,197.0,11.0,444.0,0.0,2.6522023313305834,-14.0,,,,,,,
7.399977999999997,1572.0,0.0,1418.0,1607.0,-0.7251774668693542,1495.0,7.83,0.0023371479474008083,-2.7913418,0.006773330736905336,0.0,0.7848769426345825,-0.004363323129985824,1500.0,-0.0005235987755982988,0.0013962634015954637,0.0,0.0,0.0,0.0,0.0031704779248684645,0.0,5.0,-0.19555595517158508,0.04452753812074661,1.0,1000.0,0.0,0.0,-9.740849494934082,1500.0,0.04161559417843819,51.459406699999995,0.022514747350726852,1.086997389793396,750.0375137329102,43.093742999999996,5.0,-3.0,0.0,1500.0,0.05969026041820607,43.133266,197.0,11.0,444.0,0.0,2.6522023313305834,-14.0,,,,,,,
7.499682999999997,1572.0,0.0,1418.0,1607.0,-0.7302834987640381,1495.0,7.83,0.001711194752715528,-2.7913418,0.005756021477282047,0.0,0.7390250563621521,-0.0041887902047863905,1500.0,-0.0005235987755982988,0.0013962634015954637,0.0,0.0,0.0,0.0,0.0015925359912216663,0.0,5.0,-0.1793663203716278,0.06679131090641022,1.0,1000.0,0.0,0.0,-9.732380867004395,1500.0,0.06935931742191315,51.459406699999995,0.022514747350726852,1.086348056793213,750.0375137329102,43.213553999999995,5.0,-3.0,0.0,1500.0,0.05951572749300664,43.232971,197.0,11.0,444.0,0.0,2.6522023313305834,-14.0,,,,,,,
7.5999769999999955,1572.0,0.0,1417.0,1608.0,-0.7333015203475952,1494.0,7.88,0.0014488432789221406,-2.7913414999999997,0.0053952522575855255,0.0,0.7093561291694641,-0.0041887902047863905,1501.0,-0.0005235987755982988,0.0013962634015954637,0.0,0.0,0.0,0.0,0.0007251122733578086,0.0,5.0,-0.18980899453163147,0.06679131090641022,1.0,1000.0,0.0,0.0,-9.737433433532715,1500.0,0.06935931742191315,51.4594068,0.022514747350726852,1.0942864418029785,750.0375137329102,43.293679,5.0,-3.0,0.0,1500.0,0.05969026041820607,43.333265,197.0,11.0,444.0,0.0,2.6522023313305834,-14.0,,,,,,,
7.699697999999998,1572.0,0.0,1418.0,1608.0,-0.736114501953125,1494.0,7.88,0.00022980599896982312,-2.7913414999999997,0.004252602346241474,0.0,0.7282363176345825,-0.0041887902047863905,1500.0,-0.0005235987755982988,0.0012217304763960308,0.0,0.0,0.0,0.0,0.00016308209160342813,0.0,5.0,-0.18816237151622772,0.07792319357395172,1.0,1000.0,0.0,0.0,-9.732539176940918,1500.0,0.09016712009906769,51.4594068,0.022514747350726852,1.0896846055984497,750.0375137329102,43.413577,5.0,-3.0,0.0,1500.0,0.05969026041820607,43.432986,197.0,11.0,444.0,0.0,2.6522023313305834,-14.0,,,,,,,
7.7998699999999985,1572.0,0.0,1417.0,1608.0,-0.7370389699935913,1494.0,7.92,0.00017071871843654662,-2.7913413,0.004060554318130016,0.0,0.7740882635116577,-0.004014257279586958,1501.0,-0.0005235987755982988,0.0012217304763960308,0.0,0.0,0.0,0.0,-3.0159722882672213e-05,0.0,5.0,-0.19151152670383453,0.07792319357395172,1.0,1000.0,0.0,0.0,-9.731047630310059,1500.0,0.09016712009906769,51.4594069,0.022514747350726852,1.0849814414978027,750.0375137329102,43.493352,5.0,-3.0,0.0,1500.0,0.05969026041820607,43.533158,197.0,11.0,444.0,0.0,2.652027798405384,-14.0,,,,,,,
7.899669999999993,1572.0,0.0,1418.0,1608.0,-0.7385011911392212,1494.0,7.92,-0.0006373156793415546,-2.7913413,0.002727639628574252,0.0,0.7147504687309265,-0.004014257279586958,1500.0,-0.0005235987755982988,0.0012217304763960308,0.0,0.0,0.0,0.0,0.0004001179477199912,0.0,5.0,-0.19316329061985016,0.08905507624149323,1.0,1000.0,0.0,0.0,-9.733355522155762,1500.0,0.10403898358345032,51.4594069,0.022514747350726852,1.0942587852478027,750.0375137329102,43.61416,5.0,-3.0,0.0,1500.0,0.059864793343405505,43.632957999999995,197.0,11.0,444.0,0.0,2.652027798405384,-14.0,,,,,,,
7.999973999999995,1572.0,0.0,1418.0,1607.0,-0.7392129898071289,1495.0,7.97,-0.0007523989770561457,-2.791341,0.00255545019172132,0.0,0.8199402093887329,-0.003839724354387525,1500.0,-0.0005235987755982988,0.0012217304763960308,0.0,0.0,0.0,0.0,0.0007218529935926199,0.0,5.0,-0.18958821892738342,0.08905507624149323,1.0,1000.0,0.0,0.0,-9.743467330932617,1500.0,0.10403898358345032,51.4594071,0.022514747350726852,1.091077208518982,750.0375137329102,43.693618,5.0,-3.0,0.0,1500.0,0.059864793343405505,43.733261999999996,197.0,11.0,444.0,0.0,2.651853265480184,-14.0,,,,,,,
8.099666999999997,1572.0,0.0,1418.0,1607.0,-0.7410039305686951,1495.0,7.97,-0.0010541147785261273,-2.791341,0.0018033363157883286,0.0,0.8630949258804321,-0.003839724354387525,1500.0,-0.0005235987755982988,0.0012217304763960308,0.0,0.0,0.0,0.0,-1.1135314707644284e-05,0.0,5.0,-0.2011592537164688,0.11131884157657623,1.0,1000.0,0.0,0.0,-9.738636016845703,1500.0,0.12484677135944366,51.4594071,0.022514747350726852,1.0917712450027466,750.0375137329102,43.813601999999996,5.0,-3.0,0.0,1500.0,0.059864793343405505,43.832955,197.0,11.0,444.0,0.0,2.651853265480184,-14.0,,,,,,,
8.199969999999993,1572.0,0.0,1417.0,1608.0,-0.7441204190254211,1494.0,8.03,-0.0012790887849405408,-2.7913406999999997,0.0017310057301074266,0.0,0.7929684519767761,-0.003839724354387525,1500.0,-0.0005235987755982988,0.0012217304763960308,0.0,0.0,0.0,0.0,-0.0009485544869676232,0.0,5.0,-0.19648952782154083,0.11131884157657623,1.0,1000.0,0.0,0.0,-9.746501922607422,1501.0,0.12484677135944366,51.459407399999996,0.022514747350726852,1.0910704135894775,750.0000228881836,43.893266999999994,5.0,-3.0,0.0,1500.0,0.059864793343405505,43.933257999999995,197.0,11.0,444.0,0.0,2.651678732554985,-14.0,,,,,,,
8.299636,1572.0,0.0,1418.0,1608.0,-0.750078022480011,1494.0,8.03,-0.0020535250660032034,-2.7913406999999997,0.0013941052602604032,0.0,0.7012646198272705,-0.003665191429188092,1500.0,-0.0005235987755982988,0.0012217304763960308,0.0,0.0,0.0,0.0,-0.002744317054748535,0.0,5.0,-0.19672498106956482,0.14471450448036194,1.0,1000.0,0.0,0.0,-9.745383262634277,1500.0,0.1456545740365982,51.459407399999996,0.022514747350726852,1.1024619340896606,750.0375137329102,44.013509,5.0,-3.0,0.0,1500.0,0.059864793343405505,44.032924,197.0,11.0,444.0,0.0,2.651678732554985,-14.0,,,,,,,
8.399968999999999,1572.0,0.0,1417.0,1608.0,-0.7527943849563599,1494.0,8.08,-0.0029693911783397198,-2.7913405,0.0015876871766522527,0.0,0.6985674500465393,-0.003665191429188092,1500.0,-0.0005235987755982988,0.0012217304763960308,0.0,0.0,0.0,0.0,-0.0033779111690819263,0.0,5.0,-0.19222424924373627,0.14471450448036194,1.0,1000.0,0.0,0.0,-9.74518871307373,1501.0,0.1456545740365982,51.4594075,0.022514747350726852,1.092233419418335,750.0000228881836,44.093938,5.0,-3.0,0.0,1500.0,0.060039326268604934,44.133257,197.0,11.0,444.0,0.0,2.651678732554985,-14.0,,,,,,,
8.499657999999997,1572.0,0.0,1418.0,1608.0,-0.7540782690048218,1494.0,8.08,-0.0034679288510233164,-2.7913405,0.0009159029577858746,0.0,0.6823844313621521,-0.003665191429188092,1500.0,-0.0005235987755982988,0.0012217304763960308,0.0,0.0,0.0,0.0,-0.002908041700720787,0.0,5.0,-0.19898037612438202,0.15584638714790344,1.0,1000.0,0.0,0.0,-9.747918128967285,1500.0,0.15952642261981964,51.4594075,0.022514747350726852,1.0894520282745361,750.0375137329102,44.213606999999996,5.0,-3.0,0.0,1500.0,0.060039326268604934,44.232946,197.0,11.0,444.0,0.0,2.6515041996297857,-14.0,,,,,,,
8.600018999999996,1572.0,0.0,1418.0,1607.0,-0.7533661723136902,1495.0,8.120000000000001,-0.003843560116365552,-2.7913402,0.0007402535993605852,0.0,0.7525109052658081,-0.003490658503988659,1500.0,-0.0005235987755982988,0.0012217304763960308,0.0,0.0,0.0,0.0,-0.0022430128883570433,0.0,5.0,-0.1967773735523224,0.15584638714790344,1.0,1000.0,0.0,0.0,-9.735492706298828,1500.0,0.15952642261981964,51.4594078,0.022514747350726852,1.0741342306137085,750.0000228881836,44.293709,5.0,-3.0,0.0,1500.0,0.060039326268604934,44.333307,197.0,11.0,444.0,0.0,2.6515041996297857,-14.0,,,,,,,
8.699662999999994,1572.0,0.0,1417.0,1608.0,-0.7515963912010193,1495.0,8.120000000000001,-0.004550972953438759,-2.7913402,-0.00076433049980551,0.0,0.8199402093887329,-0.003490658503988659,1500.0,-0.0005235987755982988,0.0012217304763960308,0.0,0.0,0.0,0.0,-0.0005420469678938389,0.0,5.0,-0.18835516273975372,0.18924203515052795,1.0,1000.0,0.0,0.0,-9.729291915893555,1500.0,0.18033424019813538,51.4594078,0.022514747350726852,1.0833005905151367,750.0375137329102,44.413523,5.0,-3.0,0.0,1500.0,0.060039326268604934,44.432950999999996,197.0,11.0,444.0,0.0,2.651329666704586,-14.0,,,,,,,
8.799891999999993,1572.0,0.0,1418.0,1608.0,-0.7515304684638977,1494.0,8.16,-0.004775512032210827,-2.7913398999999997,-0.0009054645197466016,0.0,0.6715957522392273,-0.003490658503988659,1500.0,-0.0005235987755982988,0.0012217304763960308,0.0,0.0,0.0,0.0,0.00018203616491518915,0.0,5.0,-0.18359974026679993,0.18924203515052795,1.0,1000.0,0.0,0.0,-9.733617782592773,1500.0,0.18033424019813538,51.4594078,0.022514747350726852,1.0783836841583252,750.0375137329102,44.493317,5.0,-3.0,0.0,1500.0,0.060039326268604934,44.533179999999994,197.0,12.0,444.0,0.0,2.651329666704586,-14.0,,,,,,,
8.899713999999996,1572.0,0.0,1418.0,1607.0,-0.7510687112808228,1495.0,8.16,-0.0047654262743890285,-2.7913398999999997,-0.0017691324464976788,0.0,0.8657920956611633,-0.0033161255787892262,1500.0,-0.0005235987755982988,0.0012217304763960308,0.0,0.0,0.0,0.0,0.0006960228201933205,0.0,5.0,-0.19154436886310577,0.18924203515052795,1.0,1000.0,0.0,0.0,-9.740293502807617,1500.0,0.20114202797412872,51.4594078,0.022514747350726852,1.0826846361160278,750.0375137329102,44.614079,5.0,-3.0,0.0,1500.0,0.060039326268604934,44.633002,197.0,12.0,444.0,0.0,2.651155133779387,-14.0,,,,,,,
8.999859999999998,1572.0,0.0,1418.0,1608.0,-0.7513571381568909,1494.0,8.18,-0.0045187934301793575,-2.7913395999999997,-0.0018881266005337238,0.0,0.8064543008804321,-0.0033161255787892262,1500.0,-0.0005235987755982988,0.0012217304763960308,0.0,0.0,0.0,0.0,0.000854305166285485,0.0,5.0,-0.19052979350090027,0.18924203515052795,1.0,1000.0,0.0,0.0,-9.732206344604492,1500.0,0.20114202797412872,51.4594078,0.022514747350726852,1.0892589092254639,750.0000228881836,44.693926999999995,5.0,-3.0,0.0,1500.0,0.060039326268604934,44.733148,197.0,12.0,444.0,0.0,2.651155133779387,-14.0,,,,,,,
9.099647999999995,1572.0,0.0,1418.0,1607.0,-0.7541094422340393,1495.0,8.18,-0.00553978281095624,-2.7913395999999997,-0.0030892726499587297,0.0,0.8469119071960449,-0.0033161255787892262,1500.0,-0.0005235987755982988,0.0012217304763960308,0.0,0.0,0.0,0.0,-8.628865180071443e-05,0.0,5.0,-0.18620921671390533,0.18924203515052795,1.0,1000.0,0.0,0.0,-9.73896312713623,1500.0,0.22194983065128326,51.4594078,0.022514747350726852,1.0891257524490356,750.0375137329102,44.813601999999996,5.0,-3.0,0.0,1500.0,0.060039326268604934,44.832936,197.0,12.0,444.0,0.0,2.651155133779387,-14.0,,,,,,,
9.199877999999998,1572.0,0.0,1418.0,1607.0,-0.7569475769996643,1495.0,8.2,-0.005702240392565727,-2.7913392999999997,-0.0031085964292287827,0.0,0.8307288885116577,-0.0033161255787892262,1500.0,-0.0005235987755982988,0.0012217304763960308,0.0,0.0,0.0,0.0,-0.0006058044964447618,0.0,5.0,-0.18265314400196075,0.18924203515052795,1.0,1000.0,0.0,0.0,-9.745405197143555,1500.0,0.22194983065128326,51.4594078,0.02234021442552742,1.0955724716186523,750.0000228881836,44.893332,5.0,-3.0,0.0,1500.0,0.060039326268604934,44.933166,197.0,12.0,444.0,0.0,2.651155133779387,-14.0,,,,,,,
9.299662999999995,1572.0,0.0,1417.0,1608.0,-0.7624166011810303,1494.0,8.2,-0.006359621416777372,-2.7913392999999997,-0.0031286312732845545,0.0,0.7848769426345825,-0.003141592653589793,1501.0,-0.0005235987755982988,0.0012217304763960308,0.0,0.0,0.0,0.0,-0.002192151267081499,0.0,5.0,-0.20375941693782806,0.18924203515052795,1.0,1000.0,0.0,0.0,-9.748315811157227,1500.0,0.2427576184272766,51.4594078,0.022514747350726852,1.081023931503296,750.0375137329102,45.013534,5.0,-3.0,0.0,1500.0,0.060039326268604934,45.032951,197.0,12.0,444.0,0.0,2.651155133779387,-14.0,,,,,,,
9.399865999999996,1572.0,0.0,1418.0,1608.0,-0.7659358382225037,1494.0,8.23,-0.006795294117182493,-2.7913391,-0.0029244350735098124,0.0,0.6419268250465393,-0.003141592653589793,1500.0,-0.0005235987755982988,0.0012217304763960308,0.0,0.0,0.0,0.0,-0.0030665709637105465,0.0,5.0,-0.18722453713417053,0.18924203515052795,1.0,1000.0,0.0,0.0,-9.742356300354004,1500.0,0.2427576184272766,51.4594078,0.022514747350726852,1.095262885093689,750.0000228881836,45.093754999999994,5.0,-3.0,0.0,1500.0,0.060039326268604934,45.133154,197.0,12.0,444.0,0.0,2.651155133779387,-14.0,,,,,,,
9.499687999999999,1572.0,0.0,1418.0,1607.0,-0.7680556774139404,1495.0,8.23,-0.007782174274325371,-2.7913391,-0.0036854210775345564,0.0,0.6985674500465393,-0.003141592653589793,1500.0,-0.0005235987755982988,0.0012217304763960308,0.0,0.0,0.0,0.0,-0.0038070629816502333,0.0,5.0,-0.19111959636211395,0.18924203515052795,1.0,1000.0,0.0,0.0,-9.736692428588867,1500.0,0.25662946701049805,51.4594078,0.02234021442552742,1.0752166509628296,750.0000228881836,45.213606,5.0,-3.0,0.0,1500.0,0.060039326268604934,45.232976,197.0,12.0,444.0,0.0,2.651155133779387,-14.0,,,,,,,
9.599990999999996,1572.0,0.0,1418.0,1608.0,-0.7672230005264282,1494.0,8.26,-0.008022813126444817,-2.7913387999999997,-0.003886139951646328,0.0,0.7012646198272705,-0.0029670597283903604,1500.0,-0.0005235987755982988,0.0012217304763960308,0.0,0.0,0.0,0.0,-0.0027549646329134703,0.0,5.0,-0.18173909187316895,0.18924203515052795,1.0,1000.0,0.0,0.0,-9.74516487121582,1500.0,0.25662946701049805,51.4594078,0.02234021442552742,1.0895804166793823,750.0000228881836,45.293997,5.0,-3.0,0.0,1500.0,0.060039326268604934,45.333279,197.0,12.0,444.0,0.0,2.6509806008541874,-14.0,,,,,,,
9.699627999999997,1572.0,0.0,1418.0,1607.0,-0.7644840478897095,1495.0,8.26,-0.008564579300582409,-2.7913387999999997,-0.004194279666990042,0.0,0.9521015882492065,-0.0029670597283903604,1500.0,-0.0005235987755982988,0.0012217304763960308,0.0,0.0,0.0,0.0,-0.0015405123122036457,0.0,5.0,-0.18918484449386597,0.18924203515052795,1.0,1000.0,0.0,0.0,-9.747251510620117,1500.0,0.2774372696876526,51.4594078,0.02234021442552742,1.087942361831665,750.0000228881836,45.413593999999996,5.0,-3.0,0.0,1500.0,0.060039326268604934,45.432916,197.0,12.0,444.0,0.0,2.6509806008541874,-14.0,,,,,,,
9.800006999999994,1572.0,0.0,1417.0,1608.0,-0.7646996974945068,1495.0,8.290000000000001,-0.008756912313401699,-2.7913386,-0.00377533957362175,0.0,0.9170383810997009,-0.0029670597283903604,1500.0,-0.0005235987755982988,0.0012217304763960308,0.0,0.0,0.0,0.0,-0.0017721049953252077,0.0,5.0,-0.19589683413505554,0.18924203515052795,1.0,1000.0,0.0,0.0,-9.740843772888184,1500.0,0.2774372696876526,51.4594078,0.02234021442552742,1.0861822366714478,750.0000228881836,45.493280999999996,5.0,-3.0,0.0,1500.0,0.060039326268604934,45.533294999999995,197.0,12.0,444.0,0.0,2.6509806008541874,-14.0,,,,,,,
9.899670999999998,1572.0,0.0,1417.0,1608.0,-0.769865870475769,1494.0,8.290000000000001,-0.008811396546661854,-2.7913386,-0.0037067437078803778,0.0,0.8577005863189697,-0.0029670597283903604,1500.0,-0.0005235987755982988,0.0012217304763960308,0.0,0.0,0.0,0.0,-0.0029623527079820633,0.0,5.0,-0.19910496473312378,0.18924203515052795,1.0,1000.0,0.0,0.0,-9.728590965270996,1501.0,0.2913091480731964,51.4594078,0.02234021442552742,1.0861878395080566,750.281364440918,45.61411,5.0,-3.0,0.0,1500.0,0.06021385919380437,45.632959,197.0,12.0,444.0,0.0,2.6508060679289875,-14.0,,,,,,,
10.000001999999995,1572.0,0.0,1418.0,1607.0,-0.7745727896690369,1495.0,8.32,-0.009077408351004124,-2.7913383,-0.003455956233665347,0.0,0.6203494668006897,-0.0027925268031909274,1500.0,-0.0005235987755982988,0.0012217304763960308,0.0,0.0,0.0,0.0,-0.003914640285074711,0.0,5.0,-0.1961623579263687,0.18924203515052795,1.0,1000.0,0.0,0.0,-9.74207592010498,1500.0,0.2913091480731964,51.4594077,0.02234021442552742,1.0905325412750244,750.0000228881836,45.693815,5.0,-3.0,0.0,1500.0,0.060039326268604934,45.73329,197.0,12.0,444.0,0.0,2.6508060679289875,-14.0,,,,,,,
10.099653999999994,1572.0,0.0,1418.0,1607.0,-0.7784314751625061,1495.0,8.32,-0.009320314973592758,-2.7913383,-0.0031517050229012966,0.0,0.7848769426345825,-0.0027925268031909274,1500.0,-0.0005235987755982988,0.0012217304763960308,0.0,0.0,0.0,0.0,-0.0048989187926054,0.0,5.0,-0.19595551490783691,0.17811015248298645,1.0,1000.0,0.0,0.0,-9.73531723022461,1500.0,0.31211692094802856,51.4594077,0.02234021442552742,1.0819799900054932,750.2438735961914,45.813545999999995,5.0,-3.0,0.0,1500.0,0.06021385919380437,45.832941999999996,197.0,12.0,444.0,0.0,2.6506315350037886,-14.0,,,,,,,
10.199884999999995,1572.0,0.0,1418.0,1607.0,-0.7790391445159912,1495.0,8.370000000000001,-0.009371043182909489,-2.7913379999999997,-0.003326836507767439,0.0,0.8630949258804321,-0.0027925268031909274,1500.0,-0.0005235987755982988,0.0012217304763960308,0.0,0.0,0.0,0.0,-0.004992219153791666,0.0,5.0,-0.18844737112522125,0.17811015248298645,1.0,1000.0,0.0,0.0,-9.740614891052246,1500.0,0.31211692094802856,51.4594077,0.02234021442552742,1.0865193605422974,750.0000228881836,45.893363,5.0,-3.0,0.0,1500.0,0.06021385919380437,45.933173,197.0,12.0,444.0,0.0,2.650457002078589,-14.0,,,,,,,
10.299688999999994,1572.0,0.0,1418.0,1607.0,-0.781261146068573,1495.0,8.370000000000001,-0.009935476817190647,-2.7913379999999997,-0.0037908360827714205,0.0,0.9143412113189697,-0.0027925268031909274,1500.0,-0.0005235987755982988,0.0012217304763960308,0.0,0.0,0.0,0.0,-0.005456092301756144,0.0,5.0,-0.20410972833633423,0.17811015248298645,1.0,1000.0,0.0,0.0,-9.739007949829102,1500.0,0.3329247534275055,51.4594077,0.02234021442552742,1.0766206979751587,750.2438735961914,46.013618,5.0,-3.0,0.0,1500.0,0.06021385919380437,46.032976999999995,197.0,12.0,444.0,0.0,2.650457002078589,-14.0,,,,,,,
10.399887999999997,1572.0,0.0,1417.0,1608.0,-0.7845375537872314,1494.0,8.41,-0.01006302796304226,-2.7913378,-0.0035280692391097546,0.0,0.9089468717575073,-0.002617993877991494,1501.0,-0.0005235987755982988,0.0012217304763960308,0.0,0.0,0.0,0.0,-0.005949311889708042,0.0,5.0,-0.19477985799312592,0.17811015248298645,1.0,1000.0,0.0,0.0,-9.73891830444336,1500.0,0.3329247534275055,51.4594076,0.02234021442552742,1.0975925922393799,750.0000228881836,46.093922,5.0,-3.0,0.0,1500.0,0.060039326268604934,46.133176,197.0,12.0,444.0,0.0,2.6502824691533893,-14.0,,,,,,,
10.499641999999994,1572.0,0.0,1418.0,1608.0,-0.7917522192001343,1494.0,8.41,-0.010819055140018463,-2.7913378,-0.003093825653195381,0.0,0.9655874371528625,-0.002617993877991494,1500.0,-0.0005235987755982988,0.0012217304763960308,0.0,0.0,0.0,0.0,-0.007897373288869858,0.0,5.0,-0.2022973895072937,0.16697826981544495,1.0,1000.0,0.0,0.0,-9.744226455688477,1500.0,0.3467966318130493,51.4594076,0.02234021442552742,1.0879864692687988,750.0000228881836,46.21357,5.0,-3.0,0.0,1500.0,0.060039326268604934,46.232929999999996,197.0,12.0,444.0,0.0,2.6502824691533893,-14.0,,,,,,,
10.600031999999999,1572.0,0.0,1418.0,1607.0,-0.7980980277061462,1495.0,8.45,-0.01115910429507494,-2.7913376,-0.0027940727304667234,0.0,0.8226373791694641,-0.002617993877991494,1500.0,-0.0005235987755982988,0.0012217304763960308,0.0,0.0,0.0,0.0,-0.009398045018315315,0.0,5.0,-0.19153915345668793,0.16697826981544495,1.0,1000.0,0.0,0.0,-9.749131202697754,1500.0,0.3467966318130493,51.4594076,0.02234021442552742,1.0861809253692627,750.0000228881836,46.293676,5.0,-3.0,0.0,1500.0,0.060039326268604934,46.33332,197.0,12.0,444.0,0.0,2.65010793622819,-14.0,,,,,,,
10.699683999999998,1572.0,0.0,1418.0,1607.0,-0.8076321482658386,1495.0,8.45,-0.011327545158565044,-2.7913376,-0.0026853184681385756,0.0,0.8388203978538513,-0.002617993877991494,1500.0,-0.0005235987755982988,0.0010471975511965976,0.0,0.0,0.0,0.0,-0.01177864521741867,0.0,5.0,-0.18691852688789368,0.16697826981544495,1.0,1000.0,0.0,0.0,-9.741730690002441,1500.0,0.36066848039627075,51.4594076,0.02234021442552742,1.0871586799621582,750.0000228881836,46.413568,5.0,-3.0,0.0,1500.0,0.060039326268604934,46.432972,197.0,12.0,444.0,0.0,2.649933403302991,-14.0,,,,,,,
10.799864,1572.0,0.0,1418.0,1607.0,-0.8128271698951721,1495.0,8.49,-0.011520721018314362,-2.7913373999999997,-0.00268018851056695,0.0,0.7525109052658081,-0.0024434609527920616,1500.0,-0.0005235987755982988,0.0010471975511965976,0.0,0.0,0.0,0.0,-0.01260578352957964,0.0,5.0,-0.20188719034194946,0.16697826981544495,1.0,1000.0,0.0,0.0,-9.742774963378906,1500.0,0.36066848039627075,51.4594075,0.02234021442552742,1.0847762823104858,750.0000228881836,46.493342999999996,5.0,-3.0,0.0,1500.0,0.060039326268604934,46.533152,197.0,12.0,444.0,0.0,2.649933403302991,-14.0,,,,,,,
10.899687999999998,1572.0,0.0,1418.0,1607.0,-0.818263053894043,1495.0,8.49,-0.011678965762257576,-2.7913373999999997,-0.0027920748107135296,0.0,0.8523062467575073,-0.0024434609527920616,1500.0,-0.0005235987755982988,0.0010471975511965976,0.0,0.0,0.0,0.0,-0.014000101946294308,0.0,5.0,-0.1977449655532837,0.15584638714790344,1.0,1000.0,0.0,0.0,-9.7464599609375,1500.0,0.3745403289794922,51.4594075,0.02234021442552742,1.0952603816986084,750.0000228881836,46.614115,5.0,-3.0,0.0,1500.0,0.060039326268604934,46.632976,197.0,12.0,444.0,0.0,2.649758870377791,-14.0,,,,,,,
11.000035999999994,1572.0,0.0,1417.0,1608.0,-0.8209779858589172,1494.0,8.540000000000001,-0.012141749262809753,-2.7913372,-0.0031064311042428017,0.0,0.7902712821960449,-0.0024434609527920616,1500.0,-0.0005235987755982988,0.0010471975511965976,0.0,0.0,0.0,0.0,-0.014081156812608242,0.0,5.0,-0.19500041007995605,0.15584638714790344,1.0,1000.0,0.0,0.0,-9.742879867553711,1500.0,0.3745403289794922,51.459407399999996,0.02234021442552742,1.093440055847168,750.0000228881836,46.693712,5.0,-3.0,0.0,1501.0,0.060039326268604934,46.733323999999996,197.0,12.0,444.0,0.0,2.649758870377791,-14.0,,,,,,,
11.099625999999994,1572.0,0.0,1418.0,1608.0,-0.8243244886398315,1494.0,8.540000000000001,-0.012062540277838707,-2.7913372,-0.003123566508293152,0.0,0.8118486404418945,-0.0024434609527920616,1500.0,-0.0005235987755982988,0.0010471975511965976,0.0,0.0,0.0,0.0,-0.014263646677136421,0.0,5.0,-0.19890472292900085,0.14471450448036194,1.0,1000.0,0.0,0.0,-9.737757682800293,1500.0,0.388412207365036,51.459407399999996,0.02234021442552742,1.083028793334961,750.0000228881836,46.813573,5.0,-3.0,0.0,1500.0,0.06021385919380437,46.832913999999995,197.0,12.0,444.0,0.0,2.6495843374525916,-14.0,,,,,,,
11.199855999999997,1572.0,0.0,1418.0,1608.0,-0.8258649110794067,1494.0,8.58,-0.01186305657029152,-2.791337,-0.003136121667921543,0.0,0.8711864352226257,-0.0024434609527920616,1500.0,-0.0005235987755982988,0.0010471975511965976,0.0,0.0,0.0,0.0,-0.01442594826221466,0.0,5.0,-0.1876712143421173,0.14471450448036194,1.0,1000.0,0.0,0.0,-9.728315353393555,1500.0,0.388412207365036,51.459407299999995,0.02234021442552742,1.0882530212402344,750.0000228881836,46.893322,5.0,-3.0,0.0,1500.0,0.060039326268604934,46.933144,197.0,12.0,444.0,0.0,2.6495843374525916,-14.0,,,,,,,
11.299688999999994,1572.0,0.0,1417.0,1608.0,-0.828518271446228,1495.0,8.58,-0.011750179342925549,-2.791337,-0.002237132517620921,0.0,0.8954609632492065,-0.0024434609527920616,1500.0,-0.0005235987755982988,0.0010471975511965976,0.0,0.0,0.0,0.0,-0.014249240979552269,0.0,5.0,-0.2008378952741623,0.13358262181282043,1.0,1000.0,0.0,0.0,-9.741331100463867,1501.0,0.40228405594825745,51.459407299999995,0.02234021442552742,1.0946571826934814,750.0000228881836,47.013535999999995,5.0,-3.0,0.0,1500.0,0.06021385919380437,47.032976999999995,197.0,12.0,444.0,0.0,2.6495843374525916,-14.0,,,,,,,
11.399887,1572.0,0.0,1418.0,1607.0,-0.8311519622802734,1495.0,8.61,-0.012282365933060646,-2.7913368999999997,-0.002537056338042021,0.0,0.6850816011428833,-0.0022689280275926286,1500.0,-0.0005235987755982988,0.0010471975511965976,0.0,0.0,0.0,0.0,-0.014787735417485237,0.0,5.0,-0.18345552682876587,0.13358262181282043,1.0,1000.0,0.0,0.0,-9.73470687866211,1500.0,0.40228405594825745,51.459407299999995,0.02234021442552742,1.0787084102630615,750.0000228881836,47.093924,5.0,-3.0,0.0,1500.0,0.060039326268604934,47.133175,197.0,12.0,444.0,0.0,2.6495843374525916,-14.0,,,,,,,
11.499662999999998,1572.0,0.0,1418.0,1608.0,-0.8332254886627197,1494.0,8.61,-0.012272362597286701,-2.7913368999999997,-0.0029313077684491873,0.0,0.7471165657043457,-0.0022689280275926286,1500.0,-0.0005235987755982988,0.0010471975511965976,0.0,0.0,0.0,0.0,-0.014502821490168571,0.0,5.0,-0.19208642840385437,0.13358262181282043,1.0,1000.0,0.0,0.0,-9.747233390808105,1500.0,0.40922001004219055,51.459407299999995,0.02234021442552742,1.0865731239318848,750.0000228881836,47.213631,5.0,-3.0,0.0,1500.0,0.06021385919380437,47.232951,197.0,12.0,444.0,0.0,2.6494098045273926,-14.0,,,,,,,
11.600023999999998,1775.0,0.0,1418.0,1608.0,-0.8325688242912292,1693.0,8.64,-0.014141402207314968,-2.7913368,-0.006161956116557121,0.0,0.7875741124153137,-0.0022689280275926286,1500.0,-0.0005235987755982988,0.0010471975511965976,0.0,0.0,0.0,0.0,-0.014111275784671307,0.0,5.0,-0.47801563143730164,0.13358262181282043,1.0,1000.0,0.0,0.0,-9.69096565246582,1500.0,0.40922001004219055,51.4594072,0.02234021442552742,1.1072962284088135,750.0000228881836,47.293681,5.0,-3.0,0.0,1500.0,0.061086523819801536,47.333312,197.0,12.0,444.0,0.0,2.6492352716021927,-14.0,,,,,,,
11.699662999999994,1651.0,0.0,1418.0,1607.0,-0.8308148384094238,1571.0,8.64,-0.014890434220433235,-2.7913368,-0.007338946219533682,0.0,0.8846722841262817,-0.0022689280275926286,1500.0,-0.0005235987755982988,0.0010471975511965976,0.0,0.0,0.0,0.0,-0.013032589107751846,0.0,5.0,0.4672316312789917,0.12245073169469833,1.0,1000.0,0.0,0.0,-9.70605754852295,1500.0,0.41615593433380127,51.4594072,0.02234021442552742,1.2021520137786865,750.0000228881836,47.413556,5.0,-3.0,0.0,1500.0,0.05846852994181004,47.432950999999996,197.0,12.0,444.0,0.0,2.6495843374525916,-14.0,,,,,,,
11.799870999999996,1572.0,0.0,1418.0,1608.0,-0.8305280804634094,1494.0,8.67,-0.011621088720858097,-2.7913367,4.33529494330287e-05,0.0,0.7875741124153137,-0.0022689280275926286,1500.0,-0.0005235987755982988,0.0010471975511965976,0.0,0.0,0.0,0.0,-0.010922372341156006,0.0,5.0,-0.5743036270141602,0.12245073169469833,1.0,1000.0,0.0,0.0,-9.756296157836914,1500.0,0.41615593433380127,51.4594071,0.02234021442552742,1.1292904615402222,750.0000228881836,47.493325,5.0,-3.0,0.0,1500.0,0.06283185307179587,47.533159,197.0,12.0,444.0,0.0,2.6488862057517943,-14.0,,,,,,,
11.899650999999999,1572.0,0.0,1418.0,1607.0,-0.8307339549064636,1495.0,8.67,-0.019742824137210846,-2.7913367,-0.012378455139696598,0.0,0.7848769426345825,-0.0020943951023931952,1500.0,-0.0005235987755982988,0.0010471975511965976,0.0,0.0,0.0,0.0,-0.013069684617221355,0.0,5.0,0.17269939184188843,0.11131884157657623,1.0,1000.0,0.0,0.0,-9.718270301818848,1500.0,0.423091858625412,51.4594071,0.02234021442552742,1.0398328304290771,750.0000228881836,47.614126999999996,5.0,-3.0,0.0,1500.0,0.05846852994181004,47.632939,197.0,12.0,444.0,0.0,2.6492352716021927,-14.0,,,,,,,
11.999995999999996,1415.0,0.0,1418.0,1606.0,-0.8304352164268494,1340.0,8.700000000000001,-0.009331402368843555,-2.7913365999999997,0.004292812664061785,0.0,0.7632995843887329,-0.0020943951023931952,1500.0,-0.0005235987755982988,0.0010471975511965976,0.0,0.0,0.0,0.0,-0.011374181136488914,0.0,5.0,-0.2456313967704773,0.11131884157657623,1.0,1000.0,0.0,0.0,-9.75395393371582,1500.0,0.423091858625412,51.459407,0.02234021442552742,1.1190290451049805,750.0000228881836,47.693706,5.0,-3.0,0.0,1500.0,0.061784655520599266,47.733284,197.0,12.0,444.0,0.0,2.6487116728265945,-14.0,,,,,,,
12.099659999999993,1543.0,0.0,1418.0,1606.0,-0.8291272521018982,1467.0,8.700000000000001,-0.018634647130966187,-2.7913365999999997,-0.012512092478573322,0.0,0.7390250563621521,-0.0020943951023931952,1500.0,-0.0005235987755982988,0.0010471975511965976,0.0,0.0,0.0,0.0,-0.010402131825685501,0.0,5.0,-0.6798497438430786,0.10018695890903473,1.0,1000.0,0.0,0.0,-9.717130661010742,1500.0,0.4300277829170227,51.459407,0.022514747350726852,1.1231317520141602,750.0000228881836,47.813604999999995,5.0,-3.0,0.0,1500.0,0.061086523819801536,47.832947999999995,197.0,12.0,444.0,0.0,2.6487116728265945,-14.0,,,,,,,
12.199985999999996,1572.0,0.0,1418.0,1607.0,-0.8274962902069092,1495.0,8.73,-0.009724915027618408,-2.7913364,0.003330452600494027,0.0,0.8172429800033569,-0.0020943951023931952,1500.0,-0.0005235987755982988,0.0010471975511965976,0.0,0.0,0.0,0.0,-0.009902343153953552,0.0,5.0,0.14157141745090485,0.10018695890903473,1.0,1000.0,0.0,0.0,-9.769789695739746,1500.0,0.4300277829170227,51.4594069,0.02234021442552742,1.0866456031799316,750.0000228881836,47.893319,5.0,-3.0,0.0,1500.0,0.059341194567807204,47.933274,197.0,12.0,444.0,0.0,2.6487116728265945,-14.0,,,,,,,
12.299627999999998,1572.0,0.0,1417.0,1608.0,-0.8250645399093628,1495.0,8.73,-0.0159507654607296,-2.7913364,-0.008389092981815338,0.0,0.8657920956611633,-0.0020943951023931952,1500.0,-0.0005235987755982988,0.0010471975511965976,0.0,0.0,0.0,0.0,-0.008486239239573479,0.0,5.0,-0.40620002150535583,0.08905507624149323,1.0,1000.0,0.0,0.0,-9.716529846191406,1500.0,0.44389966130256653,51.4594069,0.022514747350726852,1.098926305770874,750.0000228881836,48.013566,5.0,-3.0,0.0,1500.0,0.0614355896702004,48.032916,197.0,12.0,444.0,0.0,2.648537139901395,-14.0,,,,,,,
12.399896999999996,1572.0,0.0,1418.0,1608.0,-0.8244186639785767,1494.0,8.76,-0.010207563638687134,-2.7913364,0.003021218813955784,0.0,0.9116440415382385,-0.0019198621771937625,1500.0,-0.0005235987755982988,0.0010471975511965976,0.0,0.0,0.0,0.0,-0.006945611909031868,0.0,5.0,0.11005431413650513,0.08905507624149323,1.0,1000.0,0.0,0.0,-9.766585350036621,1500.0,0.44389966130256653,51.459406699999995,0.022514747350726852,1.1087781190872192,750.0000228881836,48.09374,5.0,-3.0,0.0,1500.0,0.059341194567807204,48.133185,197.0,12.0,444.0,0.0,2.648537139901395,-14.0,,,,,,,
12.499630999999994,1572.0,0.0,1418.0,1607.0,-0.8256736993789673,1495.0,8.76,-0.015613434836268425,-2.7913364,-0.007253909017890692,0.0,0.6662014126777649,-0.0019198621771937625,1500.0,-0.0005235987755982988,0.0010471975511965976,0.0,0.0,0.0,0.0,-0.007718997076153755,0.0,5.0,-0.48261702060699463,0.06679131090641022,1.0,1000.0,0.0,0.0,-9.73081111907959,1500.0,0.44389966130256653,51.459406699999995,0.022514747350726852,1.0862717628479004,750.0000228881836,48.213561999999996,5.0,-3.0,0.0,1500.0,0.061086523819801536,48.232918999999995,197.0,12.0,444.0,0.0,2.648188074050996,-14.0,,,,,,,
12.599968999999994,1572.0,0.0,1417.0,1608.0,-0.8256611824035645,1494.0,8.82,-0.010434371419250965,-2.7913360999999997,0.003002346260473132,0.0,0.8711864352226257,-0.0019198621771937625,1500.0,-0.0005235987755982988,0.0010471975511965976,0.0,0.0,0.0,0.0,-0.006540421862155199,0.0,5.0,0.07555381208658218,0.06679131090641022,1.0,1000.0,0.0,0.0,-9.75924015045166,1500.0,0.44389966130256653,51.4594066,0.022514747350726852,1.0830683708190918,750.0000228881836,48.29373,5.0,-3.0,0.0,1500.0,0.059341194567807204,48.333256999999996,197.0,12.0,444.0,0.0,2.6483626069761956,-14.0,,,,,,,
12.699694999999998,1572.0,0.0,1418.0,1607.0,-0.8247745633125305,1495.0,8.82,-0.013841268606483936,-2.7913360999999997,-0.004592712968587875,0.0,0.8010599613189697,-0.0019198621771937625,1500.0,-0.0005235987755982988,0.0010471975511965976,0.0,0.0,0.0,0.0,-0.006253696046769619,0.0,5.0,-0.46173083782196045,0.055659420788288116,1.0,1000.0,0.0,0.0,-9.732144355773926,1500.0,0.4647074341773987,51.4594066,0.022514747350726852,1.0835074186325073,750.0000228881836,48.413562999999996,5.0,-3.0,0.0,1500.0,0.06091199089460211,48.432983,197.0,12.0,444.0,0.0,2.648013541125797,-14.0,,,,,,,
12.799975999999994,1572.0,0.0,1418.0,1607.0,-0.8246409296989441,1495.0,8.84,-0.009698132984340191,-2.791336,0.0029787132516503334,0.0,0.8172429800033569,-0.0019198621771937625,1500.0,-0.0005235987755982988,0.0010471975511965976,0.0,0.0,0.0,0.0,-0.00547837046906352,0.0,5.0,0.06739494204521179,0.055659420788288116,1.0,1000.0,0.0,0.0,-9.74771785736084,1500.0,0.4647074341773987,51.4594065,0.022514747350726852,1.0780357122421265,750.0000228881836,48.49335,5.0,-3.0,0.0,1500.0,0.059341194567807204,48.533263999999996,197.0,12.0,444.0,0.0,2.648188074050996,-14.0,,,,,,,
12.899719999999995,1572.0,0.0,1417.0,1608.0,-0.824339747428894,1494.0,8.84,-0.012711388990283012,-2.791336,-0.004093848168849945,0.0,0.8657920956611633,-0.0019198621771937625,1500.0,-0.0005235987755982988,0.0010471975511965976,0.0,0.0,0.0,0.0,-0.004572116769850254,0.0,5.0,-0.44247084856033325,0.04452753812074661,1.0,1000.0,0.0,0.0,-9.735150337219238,1501.0,0.4716433882713318,51.4594065,0.02234021442552742,1.0984574556350708,750.0000228881836,48.613977999999996,5.0,-3.0,0.0,1500.0,0.06091199089460211,48.633008,197.0,12.0,444.0,0.0,2.648013541125797,-14.0,,,,,,,
13.09968,1572.0,0.0,1417.0,1608.0,-0.82463538646698,1494.0,8.84,-0.011752448044717312,-2.791336,-0.0033520373981446028,0.0,0.7552080750465393,-0.0017453292519943296,1501.0,-0.0005235987755982988,0.0010471975511965976,0.0,0.0,0.0,0.0,-0.003636026056483388,0.0,5.0,-0.3759288787841797,0.03339565545320511,1.0,1000.0,0.0,0.0,-9.725943565368652,1500.0,0.4855152368545532,51.4594065,0.022514747350726852,1.08731210231781,750.0000228881836,48.81353,5.0,-3.0,0.0,1500.0,0.06073745796940267,48.832968,197.0,12.0,444.0,0.0,2.6478390082005974,-14.0,,,,,,,
13.199882999999993,1571.0,0.0,1418.0,1608.0,-0.8245947360992432,1495.0,8.93,-0.008809542283415794,-2.7913356,0.0014500905526801944,0.0,0.8792779445648193,-0.0017453292519943296,1500.0,-0.0005235987755982988,0.0010471975511965976,0.0,0.0,0.0,0.0,-0.0030401397962123156,0.0,5.0,-0.014040431939065456,0.03339565545320511,1.0,1001.0,0.0,0.0,-9.745837211608887,1500.0,0.4855152368545532,51.4594063,0.022514747350726852,1.0836668014526367,750.0000228881836,48.893471,5.0,-3.0,0.0,1500.0,0.05951572749300664,48.933170999999994,197.0,12.0,444.0,0.0,2.648013541125797,-14.0,,,,,,,
13.299671999999994,1572.0,0.0,1418.0,1608.0,-0.8259042501449585,1494.0,8.93,-0.010669778101146221,-2.7913356,-0.002721446566283703,0.0,0.8900666236877441,-0.0017453292519943296,1500.0,-0.0005235987755982988,0.0010471975511965976,0.0,0.0,0.0,0.0,-0.0036158780567348003,0.0,5.0,-0.3530639410018921,0.022263769060373306,1.0,1000.0,0.0,0.0,-9.74268913269043,1500.0,0.49938708543777466,51.4594063,0.022514747350726852,1.0884613990783691,750.0000228881836,49.013608999999995,5.0,-3.0,0.0,1500.0,0.06073745796940267,49.032959999999996,197.0,12.0,444.0,0.0,2.6478390082005974,-14.0,,,,,,,
13.399886999999993,1572.0,0.0,1418.0,1607.0,-0.827570378780365,1495.0,8.96,-0.008642187342047691,-2.7913354,0.0010017879540100694,0.0,0.8954609632492065,-0.0017453292519943296,1500.0,-0.0005235987755982988,0.0010471975511965976,0.0,0.0,0.0,0.0,-0.003964707721024752,0.0,5.0,-0.5551851987838745,0.022263769060373306,1.0,1000.0,0.0,0.0,-9.722345352172852,1500.0,0.49938708543777466,51.4594063,0.022514747350726852,1.148176908493042,750.0000228881836,49.093865,5.0,-3.0,0.0,1500.0,0.05951572749300664,49.133174999999994,197.0,12.0,444.0,0.0,2.6478390082005974,-14.0,,,,,,,
13.499682999999997,1571.0,0.0,1417.0,1608.0,-0.8309627771377563,1495.0,8.96,-0.012741869315505028,-2.7913354,-0.0043117571622133255,0.0,0.8064543008804321,-0.0017453292519943296,1500.0,-0.0005235987755982988,0.0010471975511965976,0.0,0.0,0.0,0.0,-0.006531897932291031,0.0,5.0,0.6528041362762451,0.022263769060373306,1.0,1000.0,0.0,0.0,-9.66797924041748,1500.0,0.5132589340209961,51.4594063,0.022514747350726852,1.15811288356781,750.0000228881836,49.213584,5.0,-3.0,0.0,1500.0,0.05515240436302082,49.232971,197.0,12.0,444.0,0.0,2.648537139901395,-14.0,,,,,,,
13.600026999999997,1571.0,0.0,1417.0,1608.0,-0.8333320021629333,1495.0,9.0,-0.04027966037392616,-2.7913353,0.02860400453209877,0.0,0.7929684519767761,-0.0017453292519943296,1500.0,-0.0005235987755982988,0.0010471975511965976,0.0,0.0,0.0,0.0,-0.02287626825273037,0.0,5.0,-0.26387906074523926,0.022263769060373306,1.0,1001.0,0.0,0.0,-9.896591186523438,1500.0,0.5132589340209961,51.459406099999995,0.02076941809873252,2.5382707118988037,749.9812774658203,49.293682999999994,5.0,-3.0,0.0,1500.0,0.059341194567807204,49.333315,197.0,12.0,444.0,0.0,2.6488862057517943,-14.0,,,,,,,
13.699680999999998,1572.0,0.0,1418.0,1607.0,-0.8391566276550293,1495.0,9.0,-0.16427156329154968,-2.7913353,0.08754567056894302,0.0,0.7821797728538513,-0.0017453292519943296,1500.0,-0.0005235987755982988,0.0010471975511965976,0.0,0.0,0.0,0.0,-0.054322075098752975,0.0,5.0,-0.3908568024635315,0.0,1.0,1000.0,0.0,0.0,-9.993070602416992,1500.0,0.5201948881149292,51.459406099999995,0.0008726646259971648,1.3679940700531006,750.0000228881836,49.413624,5.0,-3.0,0.0,1500.0,0.06213372137099813,49.432969,197.0,12.0,444.0,0.0,2.6586600495629624,-14.0,,,,,,,
13.799855999999998,1571.0,0.0,1418.0,1608.0,-0.8443764448165894,1495.0,9.06,-0.20643755793571472,-2.7913348,0.11102703958749771,0.0,0.9224327206611633,-0.0017453292519943296,1500.0,-0.0005235987755982988,0.0010471975511965976,0.0,0.0,0.0,0.0,-0.08294550329446793,0.0,5.0,-0.6001050472259521,0.0,1.0,1001.0,0.0,0.0,-9.829962730407715,1500.0,0.5201948881149292,51.4594059,-0.009773843811168246,2.0015902519226074,749.9812774658203,49.493311,5.0,-3.0,0.0,1500.0,0.06335545184739416,49.533144,197.0,12.0,444.0,0.0,2.667735761673333,-14.0,,,,,,,
13.899685999999996,1572.0,0.0,1418.0,1607.0,-0.855355978012085,1495.0,9.06,-0.3543459475040436,-2.7913348,0.23427905142307281,0.0,0.8738836050033569,-0.0017453292519943296,1500.0,-0.0005235987755982988,0.0010471975511965976,0.0,0.0,0.0,0.0,-0.08359161019325256,0.0,5.0,0.22427915036678314,-0.022263769060373306,1.0,1000.0,0.0,0.0,-9.466653823852539,1500.0,0.5548745393753052,51.4594059,-0.029845130209103034,2.970637083053589,750.0000228881836,49.614154,5.0,-3.0,0.0,1500.0,0.0661479786505851,49.632974,197.0,12.0,444.0,0.0,2.68710891637047,-14.0,,,,,,,
13.999871999999996,1572.0,0.0,1418.0,1607.0,-0.8622682690620422,1495.0,9.09,-0.5836057066917419,-2.7913338999999997,0.274766743183136,0.0,0.8442147374153137,-0.0015707963267948964,1500.0,-0.0005235987755982988,0.0010471975511965976,0.0,0.0,0.0,0.0,-0.05650206655263901,0.0,5.0,0.15242187678813934,-0.022263769060373306,1.0,1000.0,0.0,0.0,-10.00830078125,1500.0,0.5548745393753052,51.4594052,-0.04276056667386108,1.8248727321624756,749.9812774658203,49.693731,5.0,-3.0,0.0,1500.0,0.0619591884457987,49.73316,197.0,12.0,444.0,0.0,2.694788365079245,-14.0,,,,,,,
14.099655999999996,1572.0,0.0,1418.0,1608.0,-0.8719514012336731,1494.0,9.09,-0.7047556042671204,-2.7913338999999997,0.35300326347351074,0.0,0.8630949258804321,-0.0015707963267948964,1500.0,-0.0005235987755982988,0.0010471975511965976,0.0,0.0,0.0,0.0,-0.08640661090612411,0.0,5.0,-1.8125380277633667,-0.10018695890903473,1.0,1000.0,0.0,0.0,-9.081073760986328,1500.0,0.6172979474067688,51.4594052,-0.07557275661135447,0.7953939437866211,750.0000228881836,49.81359,5.0,-3.0,0.0,1500.0,0.07504915783575616,49.832944,197.0,12.0,444.0,0.0,2.708401933244801,-14.0,,,,,,,
14.199995999999999,1572.0,0.0,1418.0,1608.0,-0.8766676783561707,1494.0,9.14,-0.7564806342124939,-2.7913324999999998,0.43741175532341003,0.0,0.8603977560997009,-0.0015707963267948964,1500.0,-0.0005235987755982988,0.0010471975511965976,0.0,0.0,0.0,0.0,-0.010592670179903507,0.0,5.0,1.3025559186935425,-0.10018695890903473,1.0,1000.0,0.0,0.0,-9.106391906738281,1500.0,0.6172979474067688,51.4594041,-0.09005898940290741,1.3554110527038574,749.9812774658203,49.893274999999996,5.0,-3.0,0.0,1500.0,0.05480333851262195,49.933284,197.0,12.0,444.0,0.0,2.70857646617,-14.0,,,,,,,
14.299698999999997,1572.0,0.0,1417.0,1608.0,-0.8760315179824829,1494.0,9.14,-0.7628944516181946,-2.7913324999999998,0.4106416702270508,0.0,0.6931731104850769,-0.0015707963267948964,1500.0,-0.0005235987755982988,0.0010471975511965976,0.0,0.0,0.0,0.0,-0.034538935869932175,0.0,5.0,2.305807113647461,-0.22263768315315247,1.0,1000.0,0.0,0.0,-11.991933822631836,1500.0,0.7144010066986084,51.4594041,-0.10140362954087055,-1.9880238771438599,750.0000228881836,50.013583999999994,5.0,-3.0,0.0,1500.0,0.04991641660703782,50.032987,197.0,12.0,444.0,0.0,2.7014206162368235,-14.0,,,,,,,
14.399983999999996,1572.0,0.0,1417.0,1608.0,-0.8792473673820496,1494.0,9.22,-0.8282573819160461,-2.7913311,0.26010215282440186,0.0,0.7875741124153137,-0.0017453292519943296,1500.0,-0.0005235987755982988,0.0010471975511965976,0.0,0.0,0.0,0.0,-0.018548276275396347,0.0,5.0,-2.391258716583252,-0.22263768315315247,1.0,1000.0,0.0,0.0,-8.207584381103516,1501.0,0.7144010066986084,51.4594027,-0.09546951008408983,0.6748178005218506,749.9812774658203,50.093886,5.0,-3.0,0.0,1500.0,0.056025068989017976,50.133272,197.0,12.0,444.0,0.0,2.690425041949259,-14.0,,,,,,,
14.499621999999995,1572.0,0.0,1418.0,1607.0,-0.8709633350372314,1495.0,9.22,-0.7537469267845154,-2.7913311,0.4603676199913025,0.0,0.8361232280731201,-0.0017453292519943296,1500.0,-0.0006981317007977319,0.0010471975511965976,0.0,0.0,0.0,0.0,0.030349787324666977,0.0,5.0,-0.8085850477218628,-0.3784840703010559,1.0,1000.0,0.0,0.0,-10.26349925994873,1500.0,0.811504065990448,51.4594027,-0.09651670763528643,0.04378313571214676,749.9812774658203,50.213598999999995,5.0,-3.0,0.0,1501.0,0.04921828490624009,50.23291,197.0,12.0,444.0,0.0,2.679429467661695,-14.0,,,,,,,
14.600034999999998,1571.0,0.0,1417.0,1608.0,-0.8676970601081848,1495.0,9.23,-0.7804462909698486,-2.7913296,0.3644304871559143,0.0,1.0357139110565186,-0.0015707963267948964,1501.0,-0.0006981317007977319,0.0010471975511965976,0.0,0.0,0.0,0.0,-0.028888186439871788,0.0,5.0,-0.8624016642570496,-0.3784840703010559,1.0,1001.0,0.0,0.0,-11.082540512084961,1500.0,0.811504065990448,51.4594014,-0.10506882097005865,-1.1258853673934937,749.962532043457,50.293931,5.0,-3.0,0.0,1500.0,0.04066617157146788,50.333323,197.0,12.0,444.0,0.0,2.6745425457561107,-14.0,,,,,,,
14.699705999999999,1572.0,0.0,1418.0,1608.0,-0.8743859529495239,1494.0,9.23,-0.7375275492668152,-2.7913296,0.3000507056713104,0.0,0.8792779445648193,-0.0017453292519943296,1500.0,-0.0006981317007977319,0.0010471975511965976,0.0,0.0,0.0,0.0,-0.03671470656991005,0.0,5.0,2.009727716445923,-0.5231985449790955,1.0,1000.0,0.0,0.0,-9.389961242675781,1500.0,0.9155430197715759,51.4594014,-0.11327186845443199,-0.17487052083015442,749.962532043457,50.413605,5.0,-3.0,0.0,1500.0,0.05096361415823442,50.432994,197.0,12.0,444.0,0.0,2.6785568030356974,-14.0,,,,,,,
14.799898999999996,1572.0,0.0,1418.0,1607.0,-0.8767068386077881,1495.0,9.25,-0.7240256071090698,-2.7913281,0.2737995684146881,0.0,0.9224327206611633,-0.0017453292519943296,1500.0,-0.0006981317007977319,0.0010471975511965976,0.0,0.0,0.0,0.0,-0.0008522379794158041,0.0,5.0,-2.7873544692993164,-0.5231985449790955,1.0,1000.0,0.0,0.0,-9.85013198852539,1500.0,0.9155430197715759,51.459399999999995,-0.11815879036001611,-0.7782222032546997,749.962532043457,50.493302,5.0,-3.0,0.0,1500.0,0.06771877497737998,50.533187,197.0,12.0,444.0,0.0,2.677509605484501,-14.0,,,,,,,
14.899715999999998,1572.0,0.0,1418.0,1607.0,-0.8810485601425171,1495.0,9.25,-0.6072906255722046,-2.7913281,0.3512679934501648,0.0,0.8172429800033569,-0.0017453292519943296,1500.0,-0.0008726646259971648,0.0010471975511965976,0.0,0.0,0.0,0.0,-0.06673116981983185,0.0,5.0,2.4302914142608643,-0.6790449619293213,1.0,1000.0,0.0,0.0,-9.390237808227539,1500.0,1.0195820331573486,51.459399999999995,-0.11205013797803595,0.5445921421051025,749.962532043457,50.614042999999995,5.0,-3.0,0.0,1500.0,0.0486946861306418,50.633004,197.0,12.0,444.0,0.0,2.6680848275237317,-14.0,,,,,,,
15.000012999999996,1572.0,0.0,1418.0,1607.0,-0.884709358215332,1495.0,9.290000000000001,-0.6487837433815002,-2.791327,0.2827802300453186,0.0,0.8792779445648193,-0.0015707963267948964,1500.0,-0.0008726646259971648,0.0010471975511965976,0.0,0.0,0.0,0.0,-0.013315187767148018,0.0,5.0,-0.9282234311103821,-0.6790449619293213,1.0,1000.0,0.0,0.0,-11.445731163024902,1500.0,1.0195820331573486,51.459398799999995,-0.10384709049366261,-0.7861639261245728,749.962532043457,50.693624,5.0,-3.0,0.0,1500.0,0.050265482457436686,50.733301,197.0,12.0,444.0,0.0,2.654471259358176,-14.0,,,,,,,
15.099705999999998,1572.0,0.0,1418.0,1607.0,-0.8900373578071594,1495.0,9.290000000000001,-0.697992205619812,-2.791327,0.3347638249397278,0.0,0.9170383810997009,-0.0015707963267948964,1500.0,-0.0008726646259971648,0.0010471975511965976,0.0,0.0,0.0,0.0,0.02131572552025318,0.0,5.0,-0.16664354503154755,-0.8126275539398193,1.0,1000.0,0.0,0.0,-8.078413963317871,1500.0,1.0958771705627441,51.459398799999995,-0.10227629416686772,0.5632731318473816,749.962532043457,50.813629,5.0,-3.0,0.0,1500.0,0.05585053606381855,50.832994,197.0,12.0,444.0,0.0,2.6412067570430193,-14.0,,,,,,,
15.199910999999993,1572.0,0.0,1417.0,1608.0,-0.8876510262489319,1494.0,9.32,-0.7266266942024231,-2.7913256,0.37575623393058777,0.0,1.0087422132492065,-0.0015707963267948964,1500.0,-0.0010471975511965976,0.0010471975511965976,0.0,0.0,0.0,0.0,-0.0015164775541052222,0.0,5.0,-0.5324720740318298,-0.8126275539398193,1.0,1000.0,0.0,0.0,-11.327167510986328,1501.0,1.0958771705627441,51.459397599999996,-0.11484266478122689,-0.4517176151275635,749.962532043457,50.893392999999996,5.0,-3.0,0.0,1500.0,0.05881759579220891,50.933198999999995,197.0,12.0,444.0,0.0,2.6342254400350416,-14.0,,,,,,,
15.299669999999999,1572.0,0.0,1418.0,1608.0,-0.8965319991111755,1494.0,9.32,-0.703899621963501,-2.7913256,0.3888659179210663,0.0,0.9251298904418945,-0.0015707963267948964,1500.0,-0.0010471975511965976,0.0010471975511965976,0.0,0.0,0.0,0.0,-0.056897472590208054,0.0,5.0,-2.706724166870117,-0.9462102055549622,1.0,1000.0,0.0,0.0,-8.96375560760498,1500.0,1.1929802894592285,51.459397599999996,-0.12426744274199626,-0.4493164122104645,749.9812774658203,51.013587,5.0,-3.0,0.0,1500.0,0.06492624817418906,51.032958,197.0,12.0,444.0,0.0,2.631258380306651,-14.0,,,,,,,
15.399966,1572.0,0.0,1418.0,1607.0,-0.8995264172554016,1495.0,9.35,-0.6201503872871399,-2.7913240999999998,0.45548829436302185,0.0,0.9197355508804321,-0.0015707963267948964,1500.0,-0.0010471975511965976,0.0010471975511965976,0.0,0.0,0.0,0.0,0.033401958644390106,0.0,5.0,0.4378868341445923,-0.9462102055549622,1.0,1000.0,0.0,0.0,-10.295211791992188,1500.0,1.1929802894592285,51.4593961,-0.12897983172238095,-0.9062970280647278,749.962532043457,51.093748,5.0,-3.0,0.0,1500.0,0.04991641660703782,51.133254,197.0,12.0,444.0,0.0,2.632829176633446,-14.0,,,,,,,
15.499693999999998,1571.0,0.0,1417.0,1608.0,-0.8994824290275574,1495.0,9.35,-0.5612033605575562,-2.7913240999999998,0.3943607211112976,0.0,0.8550034165382385,-0.0015707963267948964,1500.0,-0.0012217304763960308,0.0010471975511965976,0.0,0.0,0.0,0.0,0.06170205771923065,0.0,5.0,-0.6631728410720825,-1.1131885051727295,1.0,1001.0,0.0,0.0,-8.526025772094727,1500.0,1.2970192432403564,51.4593961,-0.12583823906879116,-0.5782136917114258,749.9812774658203,51.213597,5.0,-3.0,0.0,1500.0,0.044156830075456545,51.232982,197.0,12.0,444.0,0.0,2.6338763741846427,-14.0,,,,,,,
15.599987999999996,1572.0,0.0,1418.0,1607.0,-0.8946563005447388,1495.0,9.370000000000001,-0.4664047360420227,-2.7913227,0.38921982049942017,0.0,0.9871647953987122,-0.0015707963267948964,1500.0,-0.0012217304763960308,0.0010471975511965976,0.0,0.0,0.0,0.0,0.038978178054094315,0.0,5.0,3.3141040802001953,-1.1131885051727295,1.0,1000.0,0.0,0.0,-11.069589614868164,1500.0,1.2970192432403564,51.4593948,-0.1223475805648025,-1.152155876159668,749.9812774658203,51.293679,5.0,-3.0,0.0,1500.0,0.025830872929516076,51.333276,197.0,12.0,444.0,0.0,2.627942254727862,-14.0,,,,,,,
15.699690999999994,1572.0,0.0,1417.0,1608.0,-0.8981338143348694,1495.0,9.370000000000001,-0.45019516348838806,-2.7913227,0.17955420911312103,0.0,0.9521015882492065,-0.0015707963267948964,1500.0,-0.0013962634015954637,0.0010471975511965976,0.0,0.0,0.0,0.0,-0.03325476497411728,0.0,5.0,-0.1254454404115677,-1.257902979850769,1.0,1000.0,0.0,0.0,-10.795697212219238,1500.0,1.3941223621368408,51.4593948,-0.10629055144645466,-0.7965770959854126,749.9812774658203,51.413616,5.0,-3.0,0.0,1500.0,0.039095375244672985,51.432978999999996,197.0,12.0,444.0,0.0,2.60403124397554,-14.0,,,,,,,
15.799986999999994,1572.0,0.0,1418.0,1608.0,-0.9011716842651367,1494.0,9.370000000000001,-0.44250980019569397,-2.7913218,0.23199650645256042,0.0,0.9359185695648193,-0.0015707963267948964,1500.0,-0.0013962634015954637,0.0010471975511965976,0.0,0.0,0.0,0.0,0.049734316766262054,0.0,5.0,-0.8961777687072754,-1.257902979850769,1.0,1000.0,0.0,0.0,-9.58572769165039,1500.0,1.3941223621368408,51.459393399999996,-0.09756390518648302,0.929367184638977,749.962532043457,51.493483,5.0,-3.0,0.0,1500.0,0.04276056667386108,51.533274999999996,197.0,12.0,444.0,0.0,2.5858798197547985,-14.0,,,,,,,
15.899631999999997,1572.0,0.0,1418.0,1607.0,-0.8971635103225708,1495.0,9.370000000000001,-0.45662951469421387,-2.7913218,0.2911612093448639,0.0,0.8900666236877441,-0.0013962634015954637,1500.0,-0.0013962634015954637,0.0010471975511965976,0.0,0.0,0.0,0.0,0.010662214830517769,0.0,5.0,-0.9086047410964966,-1.41374933719635,1.0,1000.0,0.0,0.0,-9.506365776062012,1500.0,1.4565458297729492,51.459393399999996,-0.0926769832808989,0.2626141309738159,749.9812774658203,51.614162,5.0,-3.0,0.0,1500.0,0.046774823953448036,51.63292,197.0,12.0,444.0,0.0,2.5506241688645135,-14.0,,,,,,,
16.000056999999998,1572.0,0.0,1418.0,1607.0,-0.8984700441360474,1495.0,9.34,-0.44579729437828064,-2.7913208,0.3407674729824066,0.0,0.8091514706611633,-0.0013962634015954637,1500.0,-0.0015707963267948964,0.0010471975511965976,0.0,0.0,0.0,0.0,-0.021149110049009323,0.0,5.0,0.4172087013721466,-1.41374933719635,1.0,1000.0,0.0,0.0,-9.729812622070312,1500.0,1.4565458297729492,51.4593919,-0.09512044423369097,-0.13242344558238983,749.9812774658203,51.693638,5.0,-3.0,0.0,1500.0,0.05131268000863329,51.733345,197.0,12.0,444.0,0.0,2.535963403147761,-14.0,,,,,,,
16.099676999999993,1572.0,0.0,1417.0,1608.0,-0.8967490196228027,1494.0,9.34,-0.4358821213245392,-2.7913208,0.37274011969566345,0.0,1.0033478736877441,-0.0013962634015954637,1501.0,-0.0015707963267948964,0.0010471975511965976,0.0,0.0,0.0,0.0,0.06658154726028442,0.0,5.0,-1.9123854637145996,-1.5807275772094727,1.0,1000.0,0.0,0.0,-10.615030288696289,1500.0,1.5259051322937012,51.4593919,-0.102799892942466,-0.5775488615036011,749.9812774658203,51.813587,5.0,-3.0,0.0,1500.0,0.061784655520599266,51.832964999999994,197.0,12.0,444.0,0.0,2.5197318411042136,-14.0,,,,,,,
16.199903,1572.0,0.0,1418.0,1607.0,-0.8971660733222961,1495.0,9.35,-0.308816134929657,-2.7913189999999997,0.3942074477672577,0.0,1.0249252319335938,-0.0013962634015954637,1500.0,-0.0015707963267948964,0.0010471975511965976,0.0,0.0,0.0,0.0,-0.06770330667495728,0.0,5.0,1.2654143571853638,-1.5807275772094727,1.0,1000.0,0.0,0.0,-7.190428733825684,1500.0,1.5259051322937012,51.459390299999995,-0.1059414855960558,1.201780080795288,749.962532043457,51.893395,5.0,-3.0,0.0,1500.0,0.05707226654021458,51.933191,197.0,12.0,444.0,0.0,2.5151939850490286,-14.0,,,,,,,
16.299592999999994,1572.0,0.0,1418.0,1608.0,-0.8976009488105774,1494.0,9.35,-0.2768005430698395,-2.7913189999999997,0.3727794587612152,0.0,0.8630949258804321,-0.0013962634015954637,1500.0,-0.0017453292519943296,0.0010471975511965976,0.0,0.0,0.0,0.0,0.02065088413655758,0.0,5.0,-3.6750783920288086,-1.7588376998901367,1.0,1000.0,0.0,0.0,-9.621742248535156,1500.0,1.6507518291473389,51.459390299999995,-0.09704030641088474,-1.1132949590682983,749.962532043457,52.013602,5.0,-3.0,0.0,1500.0,0.056025068989017976,52.032880999999996,197.0,12.0,444.0,0.0,2.503674811985866,-14.0,,,,,,,
16.399983,1572.0,0.0,1418.0,1607.0,-0.8976991176605225,1495.0,9.32,-0.2271755188703537,-2.791317,0.3885607421398163,0.0,0.9197355508804321,-0.0013962634015954637,1500.0,-0.0017453292519943296,0.0010471975511965976,0.0,0.0,0.0,0.0,0.012145568616688251,0.0,5.0,0.8879604339599609,-1.7588376998901367,1.0,1000.0,0.0,0.0,-9.080848693847656,1500.0,1.6507518291473389,51.4593887,-0.09180431865490173,-0.41002243757247925,749.962532043457,52.093906999999994,5.0,-3.0,0.0,1500.0,0.034732052114687155,52.133271,197.0,12.0,444.0,0.0,2.4966934949778885,-14.0,,,,,,,
16.499640999999997,1572.0,0.0,1418.0,1608.0,-0.8982484936714172,1494.0,9.32,-0.1666613221168518,-2.791317,0.28287920355796814,0.0,0.9467072486877441,-0.0012217304763960308,1500.0,-0.0017453292519943296,0.0010471975511965976,0.0,0.0,0.0,0.0,-0.04362722858786583,0.0,5.0,0.14839020371437073,-1.9369479417800903,1.0,1000.0,0.0,0.0,-10.79074764251709,1500.0,1.7894704341888428,51.4593887,-0.0937241808320955,-0.8843406438827515,749.962532043457,52.213570999999995,5.0,-3.0,0.0,1500.0,0.03368485456349056,52.232929,197.0,12.0,444.0,0.0,2.480112867083942,-14.0,,,,,,,
16.600015,1572.0,0.0,1418.0,1608.0,-0.9032955169677734,1494.0,9.34,-0.1733241230249405,-2.7913151999999997,0.22774173319339752,0.0,0.8792779445648193,-0.0012217304763960308,1500.0,-0.0017453292519943296,0.0010471975511965976,0.0,0.0,0.0,0.0,-0.024733100086450577,0.0,5.0,-1.799525499343872,-1.9369479417800903,1.0,1000.0,0.0,0.0,-9.089655876159668,1500.0,1.7894704341888428,51.459387199999995,-0.10611601852125524,0.35795411467552185,749.962532043457,52.293689,5.0,-3.0,0.0,1500.0,0.041887902047863905,52.333303,197.0,12.0,444.0,0.0,2.477494873205951,-14.0,,,,,,,
16.699678999999996,1572.0,0.0,1418.0,1607.0,-0.9014636874198914,1495.0,9.34,-0.10797721147537231,-2.7913151999999997,0.3572913706302643,0.0,0.9332213997840881,-0.0012217304763960308,1500.0,-0.0019198621771937625,0.0010471975511965976,0.0,0.0,0.0,0.0,0.029449135065078735,0.0,5.0,2.4705429077148438,-2.103926181793213,1.0,1000.0,0.0,0.0,-9.78145980834961,1500.0,1.91431725025177,51.459387199999995,-0.13456488532876282,-0.21380023658275604,749.962532043457,52.41336,5.0,-3.0,0.0,1500.0,0.03543018381548489,52.432967,197.0,12.0,444.0,0.0,2.477494873205951,-14.0,,,,,,,
16.799902999999993,1572.0,0.0,1418.0,1608.0,-0.8997231721878052,1494.0,9.35,-0.1438543051481247,-2.7913131,0.23931467533111572,0.0,0.8496090769767761,-0.0012217304763960308,1500.0,-0.0019198621771937625,0.0010471975511965976,0.0,0.0,0.0,0.0,-0.006076802033931017,0.0,5.0,-1.5720856189727783,-2.103926181793213,1.0,1000.0,0.0,0.0,-8.51815414428711,1500.0,1.91431725025177,51.4593858,-0.14695672301792254,-0.19098220765590668,749.962532043457,52.493348,5.0,-3.0,0.0,1500.0,0.045553093477052,52.533190999999995,197.0,12.0,444.0,0.0,2.472607951300367,-14.0,,,,,,,
16.899710999999996,1572.0,0.0,1418.0,1608.0,-0.8955546021461487,1494.0,9.35,-0.10478005558252335,-2.7913131,0.3159373700618744,0.0,0.9224327206611633,-0.0013962634015954637,1500.0,-0.0019198621771937625,0.0010471975511965976,0.0,0.0,0.0,0.0,0.07641482353210449,0.0,5.0,-2.071828842163086,-2.259772539138794,1.0,1000.0,0.0,0.0,-10.227499961853027,1500.0,2.059971809387207,51.4593858,-0.14433872913993104,-0.2545553147792816,750.0000228881836,52.614101999999995,5.0,-3.0,0.0,1500.0,0.04729842272904633,52.632999,197.0,12.0,444.0,0.0,2.4713862208239705,-14.0,,,,,,,
17.000021999999994,1572.0,0.0,1417.0,1608.0,-0.8891621828079224,1494.0,9.34,-0.12066499888896942,-2.7913107,0.3535802364349365,0.0,0.8846722841262817,-0.0013962634015954637,1500.0,-0.0019198621771937625,0.0010471975511965976,0.0,0.0,0.0,0.0,0.09411194920539856,0.0,5.0,1.5706804990768433,-2.259772539138794,1.0,1000.0,0.0,0.0,-10.068120956420898,1501.0,2.059971809387207,51.459384299999996,-0.13369222070276565,-0.46486178040504456,749.962532043457,52.693875,5.0,-3.0,0.0,1500.0,0.041015237421866746,52.733309999999996,197.0,12.0,444.0,0.0,2.4656266342923896,-14.0,,,,,,,
17.099687999999993,1572.0,0.0,1417.0,1608.0,-0.8749498724937439,1495.0,9.34,-0.17221902310848236,-2.7913107,0.38482388854026794,0.0,0.8927637934684753,-0.0013962634015954637,1500.0,-0.0020943951023931952,0.0010471975511965976,0.0,0.0,0.0,0.0,0.18247108161449432,0.0,5.0,0.6932106018066406,-2.426750898361206,1.0,1000.0,0.0,0.0,-10.725879669189453,1500.0,2.2264342308044434,51.459384299999996,-0.1153662635568252,-1.7531728744506836,750.0000228881836,52.81361,5.0,-3.0,0.0,1500.0,0.05393067388662478,52.832975999999995,197.0,12.0,444.0,0.0,2.4631831733395972,-14.0,,,,,,,
17.199975999999992,1572.0,0.0,1418.0,1607.0,-0.867469847202301,1495.0,9.3,-0.0858074501156807,-2.7913085,0.337838351726532,0.0,0.8469119071960449,-0.0013962634015954637,1500.0,-0.0020943951023931952,0.0010471975511965976,0.0,0.0,0.0,0.0,-0.004557753913104534,0.0,5.0,-1.126464605331421,-2.426750898361206,1.0,1000.0,0.0,0.0,-11.41576099395752,1500.0,2.2264342308044434,51.4593827,-0.11187560505283653,-2.6803841590881348,749.962532043457,52.893333,5.0,-3.0,0.0,1500.0,0.04468042885105484,52.933263999999994,197.0,12.0,444.0,0.0,2.4623105087136,-14.0,,,,,,,
17.299687,1572.0,0.0,1418.0,1607.0,-0.8703738451004028,1495.0,9.3,-0.012703686952590942,-2.7913085,0.30565527081489563,0.0,0.8684892654418945,-0.0012217304763960308,1500.0,-0.0020943951023931952,0.0010471975511965976,0.0,0.0,0.0,0.0,0.006633251905441284,0.0,5.0,2.04921817779541,-2.60486102104187,1.0,1000.0,0.0,0.0,-9.338659286499023,1500.0,2.3790247440338135,51.4593827,-0.11030480872604163,-0.10933475196361542,750.0000228881836,53.013559,5.0,-3.0,0.0,1500.0,0.03647738136668149,53.032975,197.0,12.0,444.0,0.0,2.4621359757884007,-14.0,,,,,,,
17.399810999999993,1572.0,0.0,1418.0,1607.0,-0.865470826625824,1495.0,9.3,-0.059258971363306046,-2.7913061999999997,0.2694477438926697,0.0,0.9655874371528625,-0.0012217304763960308,1500.0,-0.0020943951023931952,0.0010471975511965976,0.0,0.0,0.0,0.0,0.10955337435007095,0.0,5.0,-0.3401467204093933,-2.60486102104187,1.0,1000.0,0.0,0.0,-9.245738983154297,1500.0,2.3790247440338135,51.459381099999995,-0.11571532940722405,-1.0134867429733276,750.0000228881836,53.093765,5.0,-3.0,0.0,1500.0,0.04363323129985824,53.133098999999994,197.0,12.0,444.0,0.0,2.458994383134811,-14.0,,,,,,,
17.499692999999994,1571.0,0.0,1417.0,1608.0,-0.8539762496948242,1495.0,9.3,0.05261547863483429,-2.7913061999999997,0.23100627958774567,0.0,0.8280317187309265,-0.0012217304763960308,1500.0,-0.0020943951023931952,0.0010471975511965976,0.0,0.0,0.0,0.0,0.03828297182917595,0.0,5.0,-0.20603492856025696,-2.782971143722534,1.0,1001.0,0.0,0.0,-10.799796104431152,1500.0,2.538551092147827,51.459381099999995,-0.12583823906879116,-1.0664458274841309,750.0750579833984,53.213618,5.0,-3.0,0.0,1500.0,0.0460766922526503,53.232980999999995,197.0,12.0,444.0,0.0,2.4640558379655944,-14.0,,,,,,,
17.599974999999993,1572.0,0.0,1418.0,1608.0,-0.8500123023986816,1494.0,9.3,0.021942531690001488,-2.7913039,0.22314803302288055,0.0,0.8064543008804321,-0.0012217304763960308,1500.0,-0.0020943951023931952,0.0008726646259971648,0.0,0.0,0.0,0.0,0.08591678738594055,0.0,5.0,1.6661534309387207,-2.782971143722534,1.0,1000.0,0.0,0.0,-11.686935424804688,1500.0,2.538551092147827,51.4593796,-0.11780972450961724,-1.3365908861160278,750.0000228881836,53.293737,5.0,-3.0,0.0,1500.0,0.04363323129985824,53.333262999999995,197.0,12.0,444.0,0.0,2.4644049038159936,-14.0,,,,,,,
17.699673999999995,1572.0,0.0,1418.0,1607.0,-0.8409579992294312,1495.0,9.3,0.05785017088055611,-2.7913039,0.21170635521411896,0.0,0.9628902673721313,-0.0012217304763960308,1500.0,-0.0020943951023931952,0.0008726646259971648,0.0,0.0,0.0,0.0,0.13327708840370178,0.0,5.0,0.16340824961662292,-2.9499495029449463,1.0,1000.0,0.0,0.0,-12.077032089233398,1500.0,2.69807767868042,51.4593796,-0.10786134777324956,-2.1615211963653564,750.0375137329102,53.413584,5.0,-3.0,0.0,1500.0,0.057944931166211744,53.432961999999996,197.0,12.0,444.0,0.0,2.4619614428632013,-14.0,,,,,,,
17.799832999999992,1572.0,0.0,1418.0,1607.0,-0.8387438058853149,1495.0,9.3,0.16156424582004547,-2.7913015999999997,0.18591810762882233,0.0,1.0168336629867554,-0.0012217304763960308,1500.0,-0.0022689280275926286,0.0008726646259971648,0.0,0.0,0.0,0.0,-0.012902780435979366,0.0,5.0,1.3816299438476562,-2.9499495029449463,1.0,1000.0,0.0,0.0,-7.224947929382324,1500.0,2.69807767868042,51.459378,-0.10873401239924674,0.2996329367160797,750.0000228881836,53.493313,5.0,-3.0,0.0,1500.0,0.04852015320544237,53.533120999999994,197.0,12.0,444.0,0.0,2.4591689160600105,-14.0,,,,,,,
17.899684999999998,1572.0,0.0,1417.0,1608.0,-0.8291005492210388,1494.0,9.3,0.26149025559425354,-2.7913015999999997,0.12870405614376068,0.0,0.9655874371528625,-0.0012217304763960308,1501.0,-0.0022689280275926286,0.0008726646259971648,0.0,0.0,0.0,0.0,0.03908266872167587,0.0,5.0,-1.5522276163101196,-3.1280596256256104,1.0,1000.0,0.0,0.0,-13.911321640014648,1500.0,2.8576040267944336,51.459378,-0.12671090369478832,-2.6704986095428467,750.0375137329102,53.614143999999996,5.0,-3.0,0.0,1500.0,0.06213372137099813,53.632973,197.0,12.0,444.0,0.0,2.4548055929300245,-14.0,,,,,,,
17.999976999999994,1572.0,0.0,1418.0,1607.0,-0.8322573304176331,1495.0,9.28,0.23772646486759186,-2.7912993999999998,0.1180654987692833,0.0,0.7606024146080017,-0.0010471975511965976,1500.0,-0.0022689280275926286,0.0008726646259971648,0.0,0.0,0.0,0.0,0.07738424092531204,0.0,5.0,-0.3609137535095215,-3.1280596256256104,1.0,1000.0,0.0,0.0,-9.952451705932617,1500.0,2.8576040267944336,51.4593765,-0.130201562198777,-1.6260192394256592,750.0000228881836,53.693811999999994,5.0,-3.0,0.0,1500.0,0.05637413483941684,53.733264999999996,197.0,12.0,444.0,0.0,2.4534093295284287,-14.0,,,,,,,
18.099631999999993,1572.0,0.0,1417.0,1608.0,-0.8224473595619202,1494.0,9.28,0.3679690659046173,-2.7912993999999998,0.13295844197273254,0.0,1.0815658569335938,-0.0010471975511965976,1501.0,-0.0022689280275926286,0.0008726646259971648,0.0,0.0,0.0,0.0,0.09003139287233353,0.0,5.0,2.8207201957702637,-3.2950377464294434,1.0,1000.0,0.0,0.0,-10.568460464477539,1500.0,3.0101945400238037,51.4593765,-0.1312487597499736,0.06301747262477875,750.0375137329102,53.81359,5.0,-3.0,0.0,1500.0,0.03368485456349056,53.832919999999994,197.0,12.0,444.0,0.0,2.4450317491188565,-14.0,,,,,,,
18.200008999999994,1572.0,0.0,1418.0,1608.0,-0.8196491599082947,1494.0,9.27,0.22528786957263947,-2.7912971,-0.07355599105358124,0.0,0.9790732860565186,-0.0010471975511965976,1500.0,-0.0022689280275926286,0.0008726646259971648,0.0,0.0,0.0,0.0,0.05113392695784569,0.0,5.0,-4.007506370544434,-3.2950377464294434,1.0,1000.0,0.0,0.0,-9.146854400634766,1500.0,3.0101945400238037,51.4593753,-0.11588986233242349,0.10062678158283234,750.0000228881836,53.893302,5.0,-3.0,0.0,1500.0,0.045553093477052,53.933296999999996,197.0,12.0,444.0,0.0,2.4394466955124745,-14.0,,,,,,,
18.299690999999996,1572.0,0.0,1418.0,1607.0,-0.814397931098938,1495.0,9.27,0.41107723116874695,-2.7912971,0.06771470606327057,0.0,0.8172429800033569,-0.0010471975511965976,1500.0,-0.0022689280275926286,0.0008726646259971648,0.0,0.0,0.0,0.0,0.05465450882911682,0.0,5.0,0.8551808595657349,-3.4286203384399414,1.0,1000.0,0.0,0.0,-13.249675750732422,1500.0,3.1697208881378174,51.4593753,-0.08744099552491591,-1.3169629573822021,750.0375137329102,54.013607,5.0,-3.0,0.0,1500.0,0.03420845333908886,54.032979,197.0,12.0,444.0,0.0,2.4373523004100814,-14.0,,,,,,,
18.399990999999993,1572.0,0.0,1417.0,1608.0,-0.8188027739524841,1495.0,9.28,0.3884420096874237,-2.7912944,0.05275093764066696,0.0,0.9359185695648193,-0.0008726646259971648,1500.0,-0.0022689280275926286,0.0008726646259971648,0.0,0.0,0.0,0.0,-0.02754760906100273,0.0,5.0,1.630394697189331,-3.4286203384399414,1.0,1000.0,0.0,0.0,-9.556371688842773,1500.0,3.1697208881378174,51.4593742,-0.06719517620178168,0.49617427587509155,750.0000228881836,54.093708,5.0,-3.0,0.0,1500.0,0.02356194490192345,54.133278999999995,197.0,12.0,444.0,0.0,2.4375268333352804,-14.0,,,,,,,
18.499646999999996,1572.0,0.0,1417.0,1608.0,-0.8174344897270203,1494.0,9.28,0.22029757499694824,-2.7912944,-0.002804118674248457,0.0,0.8657920956611633,-0.0008726646259971648,1500.0,-0.0022689280275926286,0.0006981317007977319,0.0,0.0,0.0,0.0,0.1918085217475891,0.0,5.0,-0.5567455291748047,-3.5510711669921875,1.0,1000.0,0.0,0.0,-9.438298225402832,1500.0,3.3569910526275635,51.4593742,-0.06021385919380437,1.2048251628875732,750.0375137329102,54.213535,5.0,-3.0,0.0,1501.0,0.05166174585903215,54.232935,197.0,12.0,444.0,0.0,2.4459044137448536,-14.0,,,,,,,
18.599970999999996,1572.0,0.0,1417.0,1608.0,-0.8092758059501648,1495.0,9.26,0.3029376268386841,-2.7912917999999998,0.09368811547756195,0.0,0.8900666236877441,-0.0008726646259971648,1500.0,-0.0022689280275926286,0.0006981317007977319,0.0,0.0,0.0,0.0,0.06108655035495758,0.0,5.0,-1.4946894645690918,-3.5510711669921875,1.0,1000.0,0.0,0.0,-12.06213092803955,1500.0,3.3569910526275635,51.459372599999995,-0.07993607974134029,-2.1768832206726074,750.0000228881836,54.293718999999996,5.0,-3.0,0.0,1500.0,0.05393067388662478,54.333259,197.0,12.0,444.0,0.0,2.456899988032418,-14.0,,,,,,,
18.69965,1572.0,0.0,1417.0,1608.0,-0.8142940998077393,1494.0,9.26,0.23633329570293427,-2.7912917999999998,0.003830611240118742,0.0,0.9925591945648193,-0.0006981317007977319,1500.0,-0.0022689280275926286,0.0006981317007977319,0.0,0.0,0.0,0.0,0.06567991524934769,0.0,5.0,-0.15722443163394928,-3.7291812896728516,1.0,1000.0,0.0,0.0,-7.354610919952393,1500.0,3.537325143814087,51.459372599999995,-0.08517206749732328,0.15462347865104675,750.0000228881836,54.413613,5.0,-3.0,0.0,1501.0,0.0460766922526503,54.432938,197.0,12.0,444.0,0.0,2.4591689160600105,-14.0,,,,,,,
18.800010999999998,1572.0,0.0,1418.0,1608.0,-0.8089369535446167,1494.0,9.25,0.33914127945899963,-2.7912893,0.04762450233101845,0.0,0.7686939239501953,-0.0006981317007977319,1500.0,-0.0022689280275926286,0.0006981317007977319,0.0,0.0,0.0,0.0,0.098543182015419,0.0,5.0,-2.4167516231536865,-3.7291812896728516,1.0,1000.0,0.0,0.0,-10.292274475097656,1500.0,3.537325143814087,51.4593707,-0.07906341511534314,0.3565007448196411,750.0000228881836,54.493398,5.0,-3.0,0.0,1500.0,0.05305800926062762,54.533299,197.0,12.0,444.0,0.0,2.4555037246308222,-14.0,,,,,,,
18.899731999999993,1572.0,0.0,1418.0,1607.0,-0.8029849529266357,1495.0,9.25,0.28542494773864746,-2.7912893,0.1192392036318779,0.0,0.9979535341262817,-0.0005235987755982988,1500.0,-0.0022689280275926286,0.0006981317007977319,0.0,0.0,0.0,0.0,0.21912018954753876,0.0,5.0,1.7889363765716553,-3.9406871795654297,1.0,1000.0,0.0,0.0,-10.89088249206543,1500.0,3.710723638534546,51.4593707,-0.07208209810736581,-1.5445281267166138,750.0000228881836,54.61402,5.0,-3.0,0.0,1500.0,0.015184364492350668,54.633019999999995,197.0,12.0,444.0,0.0,2.4389230967368762,-14.0,,,,,,,
18.999993999999994,1571.0,0.0,1417.0,1608.0,-0.7998905181884766,1495.0,9.23,0.4672812521457672,-2.7912866999999997,-0.0004992915783077478,0.0,0.8846722841262817,-0.0005235987755982988,1500.0,-0.0022689280275926286,0.0006981317007977319,0.0,0.0,0.0,0.0,-0.07446227222681046,0.0,5.0,0.4364957809448242,-3.9406871795654297,1.0,1000.0,0.0,0.0,-7.028585910797119,1500.0,3.710723638534546,51.4593689,-0.07871434926494426,2.1145193576812744,750.0000228881836,54.693594,5.0,-3.0,0.0,1500.0,0.019024088846738195,54.733281999999996,197.0,12.0,444.0,0.0,2.4354324382328874,-14.0,,,,,,,
19.099661999999995,1572.0,0.0,1417.0,1608.0,-0.8021870851516724,1494.0,9.23,0.3743891417980194,-2.7912866999999997,-0.024187788367271423,0.0,0.9251298904418945,-0.0005235987755982988,1500.0,-0.0022689280275926286,0.0006981317007977319,0.0,0.0,0.0,0.0,0.06532124429941177,0.0,5.0,1.4008433818817139,-4.141060829162598,1.0,1000.0,0.0,0.0,-12.17257022857666,1501.0,3.8910577297210693,51.4593689,-0.09669124056048586,-1.7709546089172363,750.0000228881836,54.813548999999995,5.0,-3.0,0.0,1500.0,0.011693705988362009,54.83295,197.0,12.0,444.0,0.0,2.4321163126540983,-14.0,,,,,,,
19.199850999999995,1571.0,0.0,1417.0,1608.0,-0.804456353187561,1495.0,9.23,0.3841411769390106,-2.7912839,-0.10356215387582779,0.0,0.9170383810997009,-0.00034906585039886593,1500.0,-0.0022689280275926286,0.0006981317007977319,0.0,0.0,0.0,0.0,0.018193121999502182,0.0,5.0,1.4224061965942383,-4.141060829162598,1.0,1001.0,0.0,0.0,-10.27941608428955,1500.0,3.8910577297210693,51.459367099999994,-0.10681415022205297,-1.217756986618042,750.0000228881836,54.893364999999996,5.0,-3.0,0.0,1500.0,0.012740903539558606,54.933139,197.0,12.0,444.0,0.0,2.4322908455792978,-14.0,,,,,,,
19.299611999999996,1572.0,0.0,1417.0,1608.0,-0.8093785047531128,1494.0,9.23,0.3637474775314331,-2.7912839,-0.15126532316207886,0.0,0.957495927810669,-0.00034906585039886593,1500.0,-0.0022689280275926286,0.0006981317007977319,0.0,0.0,0.0,0.0,0.02036641165614128,0.0,5.0,-1.6780272722244263,-4.341434955596924,1.0,1000.0,0.0,0.0,-11.230393409729004,1501.0,4.085264205932617,51.459367099999994,-0.09075712110370514,-0.9052672386169434,750.0000228881836,55.013608,5.0,-3.0,0.0,1500.0,0.045029494701453704,55.0329,197.0,12.0,444.0,0.0,2.4268803248981152,-14.0,,,,,,,
19.399990999999993,1572.0,0.0,1418.0,1607.0,-0.8127015829086304,1495.0,9.23,0.3346637487411499,-2.7912814,-0.10305531322956085,0.0,0.9601930975914001,-0.00034906585039886593,1500.0,-0.0022689280275926286,0.0005235987755982988,0.0,0.0,0.0,0.0,0.07062721997499466,0.0,5.0,0.26963287591934204,-4.341434955596924,1.0,1000.0,0.0,0.0,-8.82695484161377,1500.0,4.085264205932617,51.459365399999996,-0.06771877497737998,0.9020215272903442,750.0000228881836,55.093751999999995,5.0,-3.0,0.0,1500.0,0.04468042885105484,55.133278999999995,197.0,12.0,444.0,0.0,2.42234246884293,-14.0,,,,,,,
19.499657,1572.0,0.0,1418.0,1607.0,-0.8134447932243347,1495.0,9.23,0.36971351504325867,-2.7912814,-0.01320252288132906,0.0,0.7929684519767761,-0.00017453292519943296,1500.0,-0.0022689280275926286,0.0005235987755982988,0.0,0.0,0.0,0.0,-0.010165644809603691,0.0,5.0,-0.7766384482383728,-4.53067684173584,1.0,1000.0,0.0,0.0,-8.941444396972656,1500.0,4.258662223815918,51.459365399999996,-0.041713369122664476,0.7605668306350708,750.0000228881836,55.213586,5.0,-3.0,0.0,1500.0,0.05567600313861911,55.232945,197.0,12.0,444.0,0.0,2.420248073740537,-14.0,,,,,,,
19.599901999999993,1572.0,0.0,1417.0,1608.0,-0.8166484236717224,1494.0,9.25,0.28419166803359985,-2.7912787,-0.0939660295844078,0.0,1.0653828382492065,-0.00017453292519943296,1501.0,-0.0022689280275926286,0.0005235987755982988,0.0,0.0,0.0,0.0,0.043304964900016785,0.0,5.0,-0.8694592714309692,-4.53067684173584,1.0,1000.0,0.0,0.0,-11.050826072692871,1500.0,4.258662223815918,51.4593638,-0.04293509959906051,0.11699111759662628,750.0000228881836,55.293859,5.0,-3.0,0.0,1500.0,0.04328416544945937,55.333189999999995,197.0,12.0,444.0,0.0,2.4141394213585565,-14.0,,,,,,,
19.699702999999992,1572.0,0.0,1418.0,1608.0,-0.8205169439315796,1494.0,9.25,0.2886905372142792,-2.7912787,-0.02686821110546589,0.0,0.900855302810669,0.0,1500.0,-0.0020943951023931952,0.0005235987755982988,0.0,0.0,0.0,0.0,0.08944249898195267,0.0,5.0,-1.0037918090820312,-4.708786964416504,1.0,1000.0,0.0,0.0,-9.78687858581543,1500.0,4.445932388305664,51.4593638,-0.059341194567807204,-0.8016985058784485,750.0000228881836,55.413526,5.0,-3.0,0.0,1500.0,0.061086523819801536,55.432990999999994,197.0,12.0,444.0,0.0,2.4162338164609496,-14.0,,,,,,,
19.799870999999996,1572.0,0.0,1417.0,1608.0,-0.820130467414856,1494.0,9.27,0.24870799481868744,-2.7912757,-0.13582287728786469,0.0,1.0249252319335938,0.0,1501.0,-0.0020943951023931952,0.0005235987755982988,0.0,0.0,0.0,0.0,0.107882559299469,0.0,5.0,-2.540140151977539,-4.708786964416504,1.0,1000.0,0.0,0.0,-7.065781116485596,1500.0,4.445932388305664,51.459362,-0.0762708883121522,-0.2206924557685852,750.0000228881836,55.493452,5.0,-3.0,0.0,1500.0,0.058643062867009474,55.533159,197.0,12.0,444.0,0.0,2.4096015653033716,-14.0,,,,,,,
19.899641999999993,1572.0,0.0,1418.0,1608.0,-0.8090412616729736,1494.0,9.27,0.5504481196403503,-2.7912757,-0.082103431224823,0.0,1.0491998195648193,0.0,1500.0,-0.0020943951023931952,0.0005235987755982988,0.0,0.0,0.0,0.0,0.03357454761862755,0.0,5.0,1.5286284685134888,-4.90916109085083,1.0,1000.0,0.0,0.0,-11.964010238647461,1500.0,4.65401029586792,51.459362,-0.09128071987930345,-0.8118142485618591,750.0000228881836,55.614132,5.0,-3.0,0.0,1500.0,0.05899212871740834,55.632929999999995,197.0,12.0,444.0,0.0,2.4001767873426023,-14.0,,,,,,,
20.000026,1572.0,0.0,1418.0,1607.0,-0.8154906034469604,1495.0,9.25,0.3934103548526764,-2.7912727,-0.16339266300201416,0.0,0.900855302810669,0.0,1500.0,-0.0020943951023931952,0.0005235987755982988,0.0,0.0,0.0,0.0,0.019480522722005844,0.0,5.0,0.26387208700180054,-4.90916109085083,1.0,1000.0,0.0,0.0,-8.87363052368164,1500.0,4.65401029586792,51.459360399999994,-0.07243116395776468,-1.1664259433746338,750.0000228881836,55.693697,5.0,-3.0,0.0,1500.0,0.04537856055185257,55.733314,197.0,12.0,444.0,0.0,2.383247093598257,-14.0,,,,,,,
20.099684999999994,1572.0,0.0,1418.0,1607.0,-0.8205195069313049,1495.0,9.25,0.47797632217407227,-2.7912727,-0.2158319056034088,0.0,0.9359185695648193,0.0,1500.0,-0.0020943951023931952,0.0005235987755982988,0.0,0.0,0.0,0.0,0.041028767824172974,0.0,5.0,-0.11452849209308624,-5.087271213531494,1.0,1000.0,0.0,0.0,-8.396910667419434,1500.0,4.862088203430176,51.459360399999994,-0.056025068989017976,0.5679603815078735,752.6908721923828,55.813579,5.0,-3.0,0.0,1500.0,0.06492624817418906,55.832972999999996,197.0,12.0,444.0,0.0,2.370855255909097,-14.0,,,,,,,
20.199980999999994,1572.0,0.0,1417.0,1608.0,-0.8194394707679749,1494.0,9.27,0.3984459936618805,-2.7912698,-0.20723317563533783,0.0,0.9952563643455505,0.0,1500.0,-0.0020943951023931952,0.0005235987755982988,0.0,0.0,0.0,0.0,0.13435399532318115,0.0,5.0,-0.14023156464099884,-5.087271213531494,1.0,1000.0,0.0,0.0,-11.13448715209961,1501.0,4.862088203430176,51.459359,-0.0645771823237902,-1.2985872030258179,752.6908721923828,55.89335,5.0,-3.0,0.0,1500.0,0.06387905062299247,55.933268999999996,197.0,12.0,444.0,0.0,2.367888196180707,-14.0,,,,,,,
20.299646999999993,1572.0,0.0,1418.0,1608.0,-0.8186506032943726,1494.0,9.27,0.46319955587387085,-2.7912698,-0.17395862936973572,0.0,0.9817704558372498,0.00017453292519943296,1500.0,-0.0020943951023931952,0.0005235987755982988,0.0,0.0,0.0,0.0,0.09355293959379196,0.0,5.0,1.7924855947494507,-5.243117809295654,1.0,1000.0,0.0,0.0,-8.818170547485352,1500.0,5.063230514526367,51.459359,-0.08970992355250854,0.032802991569042206,752.6908721923828,56.013479999999994,5.0,-3.0,0.0,1500.0,0.08639379797371932,56.032934999999995,197.0,12.0,444.0,0.0,2.385865087476249,-14.0,,,,,,,
20.399870999999997,1572.0,0.0,1417.0,1608.0,-0.8164184093475342,1494.0,9.290000000000001,0.5166747570037842,-2.7912668999999997,-0.22577428817749023,0.0,1.1489951610565186,0.00017453292519943296,1500.0,-0.0020943951023931952,0.0005235987755982988,0.0,0.0,0.0,0.0,0.08368877321481705,0.0,5.0,-1.6567249298095703,-5.243117809295654,1.0,1000.0,0.0,0.0,-11.089208602905273,1500.0,5.063230514526367,51.459357399999995,-0.10175269539126941,0.04262194409966469,750.3377075195312,56.093816,5.0,-3.0,0.0,1501.0,0.0804596785169386,56.133159,197.0,12.0,444.0,0.0,2.3938936020354222,-14.0,,,,,,,
20.499653999999992,1572.0,0.0,1418.0,1608.0,-0.8258532881736755,1494.0,9.290000000000001,0.49123403429985046,-2.7912668999999997,-0.15924322605133057,0.0,0.8738836050033569,0.00034906585039886593,1500.0,-0.0020943951023931952,0.00034906585039886593,0.0,0.0,0.0,0.0,0.0776515007019043,0.0,5.0,2.6720101833343506,-5.421227931976318,1.0,1000.0,0.0,0.0,-8.221195220947266,1500.0,5.2643723487854,51.459357399999995,-0.07853981633974483,-0.39053675532341003,750.3939971923828,56.213618,5.0,-3.0,0.0,1500.0,0.045029494701453704,56.232941999999994,197.0,12.0,444.0,0.0,2.3938936020354222,-14.0,,,,,,,
20.599997999999992,1572.0,0.0,1418.0,1607.0,-0.8253290057182312,1495.0,9.27,0.3368634581565857,-2.7912641,-0.3442375361919403,0.0,0.9089468717575073,0.00034906585039886593,1500.0,-0.0020943951023931952,0.00034906585039886593,0.0,0.0,0.0,0.0,0.1469188928604126,0.0,5.0,-0.8048849105834961,-5.421227931976318,1.0,1000.0,0.0,0.0,-12.317915916442871,1500.0,5.2643723487854,51.4593559,-0.05393067388662478,-2.019540309906006,750.3377075195312,56.293710999999995,5.0,-3.0,0.0,1500.0,0.05305800926062762,56.333285999999994,197.0,12.0,444.0,0.0,2.3851669557754507,-14.0,,,,,,,
20.699656999999995,1572.0,0.0,1417.0,1608.0,-0.8344370722770691,1495.0,9.27,0.618495762348175,-2.7912641,-0.31161490082740784,0.0,0.9413129091262817,0.00034906585039886593,1500.0,-0.0019198621771937625,0.00034906585039886593,0.0,0.0,0.0,0.0,-0.08214462548494339,0.0,5.0,0.031816620379686356,-5.588205814361572,1.0,1000.0,0.0,0.0,-6.393659591674805,1500.0,5.458578109741211,51.4593559,-0.046774823953448036,1.776773452758789,750.3377075195312,56.413565,5.0,-3.0,0.0,1500.0,0.07993607974134029,56.432945,197.0,12.0,444.0,0.0,2.3937190691102233,-14.0,,,,,,,
20.799888999999993,1572.0,0.0,1418.0,1608.0,-0.8417306542396545,1494.0,9.31,0.5914121866226196,-2.7912614,-0.34442758560180664,0.0,0.9655874371528625,0.0005235987755982988,1500.0,-0.0019198621771937625,0.00034906585039886593,0.0,0.0,0.0,0.0,-0.0671558603644371,0.0,5.0,0.6719630360603333,-5.588205814361572,1.0,1000.0,0.0,0.0,-6.969911575317383,1500.0,5.458578109741211,51.4593547,-0.05846852994181004,2.605818033218384,750.0375137329102,56.493275999999994,5.0,-3.0,0.0,1500.0,0.05166174585903215,56.533176999999995,197.0,12.0,444.0,0.0,2.3855160216258495,-14.0,,,,,,,
20.899705999999995,1572.0,0.0,1418.0,1608.0,-0.8512511253356934,1494.0,9.31,0.5691805481910706,-2.7912614,-0.3917931318283081,0.0,1.0815658569335938,0.0005235987755982988,1500.0,-0.0019198621771937625,0.00034906585039886593,0.0,0.0,0.0,0.0,-0.05491625890135765,0.0,5.0,1.176693081855774,-5.7217888832092285,1.0,1000.0,0.0,0.0,-10.933547019958496,1500.0,5.645848274230957,51.4593547,-0.07138396640656808,0.039987750351428986,750.13134765625,56.61412,5.0,-3.0,0.0,1500.0,0.053407075111026485,56.632994,197.0,12.0,444.0,0.0,2.3802800338698664,-14.0,,,,,,,
20.999905999999996,1572.0,0.0,1418.0,1608.0,-0.8620380759239197,1494.0,9.35,0.40526115894317627,-2.7912588,-0.4903274178504944,0.0,0.9413129091262817,0.0005235987755982988,1500.0,-0.0019198621771937625,0.00034906585039886593,0.0,0.0,0.0,0.0,-0.0025126091204583645,0.0,5.0,-3.3811163902282715,-5.7217888832092285,1.0,1000.0,0.0,0.0,-8.187087059020996,1500.0,5.645848274230957,51.459353199999995,-0.06946410422937431,0.7226883172988892,750.13134765625,56.693585999999996,5.0,-3.0,0.0,1500.0,0.05707226654021458,56.733194,197.0,12.0,444.0,0.0,2.3757421778146814,-14.0,,,,,,,
21.099644999999995,1572.0,0.0,1417.0,1608.0,-0.8641189336776733,1494.0,9.35,0.5492531061172485,-2.7912588,-0.24722376465797424,0.0,0.8523062467575073,0.0006981317007977319,1500.0,-0.0019198621771937625,0.00034906585039886593,0.0,0.0,0.0,0.0,0.11441392451524734,0.0,5.0,-1.1844102144241333,-5.888766765594482,1.0,1000.0,0.0,0.0,-12.130914688110352,1501.0,5.826183319091797,51.459353199999995,-0.06091199089460211,-0.017095832154154778,750.13134765625,56.813638999999995,5.0,-3.0,0.0,1500.0,0.05811946409141117,56.832933,197.0,12.0,444.0,0.0,2.3677136632555076,-14.0,,,,,,,
21.199982999999996,1572.0,0.0,1417.0,1608.0,-0.8657616972923279,1494.0,9.36,0.404692679643631,-2.7912559,-0.3528912663459778,0.0,1.0303195714950562,0.0006981317007977319,1500.0,-0.0019198621771937625,0.00034906585039886593,0.0,0.0,0.0,0.0,-0.007160157896578312,0.0,5.0,-0.6408057808876038,-5.888766765594482,1.0,1000.0,0.0,0.0,-7.8129472732543945,1500.0,5.826183319091797,51.4593517,-0.05550147021341968,1.2939469814300537,750.13134765625,56.893339,5.0,-3.0,0.0,1501.0,0.041713369122664476,56.933271,197.0,12.0,444.0,0.0,2.3553218255663477,-14.0,,,,,,,
21.299690999999996,1572.0,0.0,1418.0,1607.0,-0.8645039200782776,1495.0,9.36,0.5125160217285156,-2.7912559,-0.27109596133232117,0.0,1.0384111404418945,0.0006981317007977319,1500.0,-0.0019198621771937625,0.00034906585039886593,0.0,0.0,0.0,0.0,0.06073908135294914,0.0,5.0,-3.445594310760498,-6.0557451248168945,1.0,1000.0,0.0,0.0,-12.653287887573242,1500.0,6.02732515335083,51.4593517,-0.061784655520599266,-2.1003365516662598,750.13134765625,57.013596,5.0,-3.0,0.0,1500.0,0.07278022980816354,57.032979,197.0,12.0,444.0,0.0,2.3589870169955356,-14.0,,,,,,,
21.399811999999997,1572.0,0.0,1418.0,1607.0,-0.8661179542541504,1495.0,9.33,0.5478407740592957,-2.7912526,-0.14721526205539703,0.0,0.9763761162757874,0.0006981317007977319,1500.0,-0.0017453292519943296,0.00034906585039886593,0.0,0.0,0.0,0.0,0.14159904420375824,0.0,5.0,3.458082675933838,-6.0557451248168945,1.0,1000.0,0.0,0.0,-11.413066864013672,1500.0,6.02732515335083,51.4593503,-0.08203047484373349,-1.886050820350647,750.0562591552734,57.093757,5.0,-3.0,0.0,1500.0,0.039095375244672985,57.1331,197.0,12.0,444.0,0.0,2.356718088967943,-14.0,,,,,,,
21.499646999999996,1572.0,0.0,1418.0,1608.0,-0.8697876930236816,1494.0,9.33,0.4043329358100891,-2.7912526,-0.46446692943573,0.0,1.0033478736877441,0.0008726646259971648,1500.0,-0.0017453292519943296,0.00034906585039886593,0.0,0.0,0.0,0.0,-0.0044819568283855915,0.0,5.0,0.09045283496379852,-6.211591720581055,1.0,1000.0,0.0,0.0,-5.732015609741211,1500.0,6.256210803985596,51.4593503,-0.10576695267085638,1.048873782157898,750.0562591552734,57.213592,5.0,-3.0,0.0,1500.0,0.054105206811824215,57.232935,197.0,12.0,444.0,0.0,2.3495622390347664,-14.0,,,,,,,
